timestamp,Qx_sensor1,Qy_sensor1,Qz_sensor1,Qw_sensor1,Heading_sensor1,Pitch_sensor1,Roll_sensor1,accx,accy,accz,gx,gy,gz,Vbat
336.08941650390625,-0.44236499071121216,0.3306228816509247,-0.5627260208129883,-0.6150944232940674,170.0,-64.76801300048828,69.67669677734375,-0.9443360567092896,0.3388672173023224,-0.0239257849752903,-0.30517578125,0.0,0.152587890625,3.423051357269287
336.1422119140625,-0.4468570053577423,0.3266637623310089,-0.5653160810470581,-0.6115777492523193,169.0,-64.79521179199219,69.74693298339844,-0.9531251192092896,0.3652344048023224,0.0253906287252903,0.6103515625,3.814697265625,0.457763671875,3.4231514930725098
336.1954345703125,-0.4500129222869873,0.3227646052837372,-0.5692010521888733,-0.607718288898468,169.0,-64.76887512207031,70.3039321899414,-0.9218751192092896,0.3208008110523224,-0.0395507849752903,-1.8310546875,-1.678466796875,-0.6103515625,3.4231514930725098
336.24871826171875,-0.45144352316856384,0.32154980301856995,-0.5705086588859558,-0.6060731410980225,169.0,-64.80581665039062,70.47802734375,-0.9555665254592896,0.3486328423023224,-0.0307617224752903,0.152587890625,0.457763671875,0.762939453125,3.4231514930725098
336.30169677734375,-0.45332634449005127,0.31975215673446655,-0.5719510912895203,-0.6042564511299133,169.0,-64.82134246826172,70.60775756835938,-0.9321290254592896,0.3427734673023224,-0.01757812686264515,0.0,0.30517578125,-0.152587890625,3.4231514930725098
336.35546875,-0.4574092626571655,0.3160695433616638,-0.5747924447059631,-0.600408673286438,168.0,-64.87351989746094,70.83075714111328,-0.9423829317092896,0.3383789360523224,-0.01367187686264515,0.0,-0.30517578125,1.220703125,3.423051357269287
336.40838623046875,-0.4610750377178192,0.3124145269393921,-0.5776286125183105,-0.5967848300933838,168.0,-64.89729309082031,71.09068298339844,-0.9409180879592896,0.3457031548023224,-0.01367187686264515,0.0,0.6103515625,-1.068115234375,3.423051357269287
336.461669921875,-0.46279510855674744,0.3106324076652527,-0.5791309475898743,-0.5949249267578125,167.0,-64.9101333618164,71.26044464111328,-0.9340821504592896,0.3398437798023224,-0.0288085974752903,0.0,-0.457763671875,0.762939453125,3.423051357269287
336.5150146484375,-0.4662857949733734,0.3072356581687927,-0.5819730162620544,-0.5911778807640076,167.0,-64.95740509033203,71.5692367553711,-0.9438477754592896,0.3393554985523224,-0.02197265811264515,-0.6103515625,1.068115234375,0.0,3.423051357269287
336.5684509277344,-0.46981972455978394,0.3036104738712311,-0.5847565531730652,-0.5874946117401123,166.0,-64.98531341552734,71.84423065185547,-0.9360352754592896,0.3427734673023224,-0.01855468936264515,0.0,-0.30517578125,0.457763671875,3.423051357269287
336.6213684082031,-0.47139427065849304,0.3017424941062927,-0.5861912965774536,-0.5857634544372559,166.0,-64.9791488647461,72.00508117675781,-0.9375001192092896,0.3447265923023224,-0.0234375037252903,0.0,0.30517578125,0.152587890625,3.423051357269287
336.6752014160156,-0.4730836749076843,0.2997877597808838,-0.5876808166503906,-0.5839097499847412,166.0,-64.97758483886719,72.1692123413086,-0.9375001192092896,0.3447265923023224,-0.02246093936264515,0.30517578125,-0.152587890625,-0.30517578125,3.423051357269287
336.7281494140625,-0.47686466574668884,0.2960924804210663,-0.590430736541748,-0.579931914806366,165.0,-65.03125,72.42790985107422,-0.9389649629592896,0.3471679985523224,-0.0244140662252903,0.6103515625,-0.6103515625,-0.30517578125,3.423051357269287
336.7817687988281,-0.48059844970703125,0.29233476519584656,-0.5931244492530823,-0.5759938955307007,165.0,-65.07707977294922,72.67520141601562,-0.9404298067092896,0.3403320610523224,-0.02294922061264515,0.0,-0.152587890625,-0.6103515625,3.423051357269287
336.8348388671875,-0.4824768304824829,0.2905346751213074,-0.5944119691848755,-0.5740037560462952,164.0,-65.10980987548828,72.78998565673828,-0.9428712129592896,0.3388672173023224,-0.02148437686264515,0.30517578125,-0.30517578125,0.0,3.4231514930725098
336.88800048828125,-0.48610103130340576,0.28684738278388977,-0.5969240665435791,-0.5701807737350464,164.0,-65.15401458740234,73.00690460205078,-0.9370118379592896,0.3403320610523224,-0.01611328311264515,0.0,-0.152587890625,-0.30517578125,3.4232516288757324
336.94146728515625,-0.48952609300613403,0.28345248103141785,-0.5993899703025818,-0.5663485527038574,163.0,-65.21672058105469,73.25505828857422,-0.9414063692092896,0.3383789360523224,-0.02148437686264515,-0.152587890625,0.152587890625,-0.30517578125,3.4232516288757324
336.99530029296875,-0.4911535978317261,0.2817407250404358,-0.6005725264549255,-0.5645378828048706,163.0,-65.23770141601562,73.3703384399414,-0.9350587129592896,0.3422851860523224,-0.0244140662252903,-0.152587890625,0.0,0.0,3.4231514930725098
337.0482482910156,-0.4942041337490082,0.278496652841568,-0.60305255651474,-0.5608294606208801,163.0,-65.29070281982422,73.66975402832031,-0.9409180879592896,0.3383789360523224,-0.0234375037252903,-0.30517578125,0.152587890625,-0.152587890625,3.4232516288757324
337.10186767578125,-0.4957055449485779,0.2768317461013794,-0.6042702198028564,-0.5590150356292725,162.0,-65.31072235107422,73.81289672851562,-0.9414063692092896,0.3393554985523224,-0.02148437686264515,0.0,-0.152587890625,0.457763671875,3.423351764678955
337.1549377441406,-0.49885520339012146,0.2731018364429474,-0.6067695617675781,-0.5553284287452698,162.0,-65.32669067382812,74.08149719238281,-0.9331055879592896,0.3461914360523224,-0.0253906287252903,0.0,0.0,-0.152587890625,3.423351764678955
337.2083740234375,-0.5004761815071106,0.27142661809921265,-0.6079230308532715,-0.5534265041351318,162.0,-65.35809326171875,74.20166778564453,-0.9394532442092896,0.3442383110523224,-0.0244140662252903,0.0,0.0,-0.6103515625,3.423351764678955
337.2615661621094,-0.5036969184875488,0.2680667042732239,-0.6102226376533508,-0.5495980381965637,161.0,-65.42151641845703,74.44535064697266,-0.9418946504592896,0.3364258110523224,-0.01269531436264515,0.152587890625,-0.30517578125,-0.152587890625,3.423351764678955
337.31536865234375,-0.5070376396179199,0.2643417418003082,-0.6124831438064575,-0.5458029508590698,160.0,-65.45854949951172,74.6462631225586,-0.9423829317092896,0.3310547173023224,-0.01953125186264515,1.068115234375,-1.068115234375,0.30517578125,3.4232516288757324
337.3681945800781,-0.5086906552314758,0.26226305961608887,-0.6136884689331055,-0.5439103245735168,160.0,-65.45707702636719,74.75678253173828,-0.9379884004592896,0.3364258110523224,-0.02148437686264515,0.0,0.457763671875,0.152587890625,3.423351764678955
337.4217224121094,-0.5112808346748352,0.2591952383518219,-0.61600661277771,-0.5403199791908264,160.0,-65.50556182861328,75.08586883544922,-0.9394532442092896,0.3457031548023224,-0.0273437537252903,-1.220703125,0.762939453125,0.0,3.423351764678955
337.4748229980469,-0.5121761560440063,0.25822198390960693,-0.6170445084571838,-0.5387517213821411,160.0,-65.54767608642578,75.28345489501953,-0.9399415254592896,0.3427734673023224,-0.02294922061264515,-1.373291015625,1.068115234375,-0.30517578125,3.423351764678955
337.5282897949219,-0.5147661566734314,0.2552788555622101,-0.6191554069519043,-0.5352524518966675,159.0,-65.60472869873047,75.56527709960938,-0.9384766817092896,0.3408203423023224,-0.01660156436264515,0.30517578125,0.0,0.0,3.4234519004821777
337.58160400390625,-0.516435444355011,0.25309130549430847,-0.6202859282493591,-0.5333711504936218,159.0,-65.59651184082031,75.65272521972656,-0.9365235567092896,0.3408203423023224,-0.02294922061264515,0.762939453125,-0.91552734375,0.152587890625,3.4235520362854004
337.6348876953125,-0.5195648670196533,0.2493744045495987,-0.6224893927574158,-0.5295014977455139,159.0,-65.63495635986328,75.88056945800781,-0.9428712129592896,0.3408203423023224,-0.0239257849752903,0.457763671875,-0.457763671875,0.0,3.4235520362854004
337.68792724609375,-0.5209758281707764,0.24771089851856232,-0.6235691905021667,-0.5276219844818115,158.0,-65.66119384765625,76.0146255493164,-0.9389649629592896,0.3364258110523224,-0.0263671912252903,-0.30517578125,0.457763671875,-0.152587890625,3.4235520362854004
337.7415771484375,-0.5234977006912231,0.24469248950481415,-0.6256738901138306,-0.5240305662155151,158.0,-65.71770477294922,76.31147003173828,-0.9448243379592896,0.3413086235523224,-0.01904297061264515,-0.152587890625,0.0,0.6103515625,3.4234519004821777
337.7949523925781,-0.5259648561477661,0.24140410125255585,-0.6276506781578064,-0.5207107663154602,158.0,-65.73406982421875,76.5547866821289,-0.9350587129592896,0.3422851860523224,-0.01953125186264515,-0.91552734375,0.762939453125,-0.152587890625,3.4234519004821777
337.84820556640625,-0.5270726680755615,0.2402448207139969,-0.6286003589630127,-0.5189784169197083,157.0,-65.78321075439453,76.71092224121094,-0.9384766817092896,0.3432617485523224,-0.0234375037252903,-0.6103515625,0.457763671875,0.0,3.423351764678955
337.90185546875,-0.5295462608337402,0.23733572661876678,-0.6305378675460815,-0.5154362320899963,157.0,-65.84766387939453,76.97908020019531,-0.9375001192092896,0.3442383110523224,-0.02001953311264515,-0.152587890625,0.457763671875,-0.6103515625,3.4232516288757324
337.95465087890625,-0.5308641195297241,0.2359534054994583,-0.6315792202949524,-0.5134366154670715,157.0,-65.9035873413086,77.1402587890625,-0.9467774629592896,0.3374023735523224,-0.02294922061264515,0.457763671875,0.0,0.0,3.4232516288757324
338.0083923339844,-0.5338653922080994,0.23200416564941406,-0.6335137486457825,-0.5097277164459229,156.0,-65.91485595703125,77.30705261230469,-0.9370118379592896,0.3437500298023224,-0.0244140662252903,1.220703125,-1.068115234375,0.457763671875,3.4232516288757324
338.0614013671875,-0.5352624654769897,0.23018227517604828,-0.6345216631889343,-0.5078312754631042,156.0,-65.9315414428711,77.42420196533203,-0.9438477754592896,0.3422851860523224,-0.0253906287252903,0.0,0.0,-0.457763671875,3.4231514930725098
338.11517333984375,-0.5378075838088989,0.22708743810653687,-0.6363303065299988,-0.5042598247528076,156.0,-65.98918151855469,77.6501235961914,-0.9394532442092896,0.3344726860523224,-0.02197265811264515,-0.152587890625,0.152587890625,0.0,3.423051357269287
338.16802978515625,-0.5401558876037598,0.2245142161846161,-0.6380628347396851,-0.5007002949714661,155.0,-66.08324432373047,77.90620422363281,-0.9438477754592896,0.3374023735523224,-0.02148437686264515,-0.91552734375,0.762939453125,-0.457763671875,3.423051357269287
338.2215576171875,-0.5411431789398193,0.22328586876392365,-0.6388746500015259,-0.49914607405662537,155.0,-66.11355590820312,78.03231048583984,-0.9433594942092896,0.3344726860523224,-0.02246093936264515,-0.762939453125,0.152587890625,0.152587890625,3.423051357269287
338.27471923828125,-0.5434706211090088,0.2200920432806015,-0.6405556797981262,-0.4958706498146057,155.0,-66.13775634765625,78.23338317871094,-0.9350587129592896,0.3403320610523224,-0.02294922061264515,0.0,0.0,0.762939453125,3.423051357269287
338.32806396484375,-0.5446895956993103,0.21817032992839813,-0.6414316296577454,-0.4942473769187927,154.0,-66.12384796142578,78.32110595703125,-0.9404298067092896,0.3437500298023224,-0.0268554724752903,0.152587890625,-0.152587890625,0.0,3.423051357269287
338.3814392089844,-0.5471906661987305,0.21496589481830597,-0.643086314201355,-0.49072620272636414,154.0,-66.17173767089844,78.51224517822266,-0.9389649629592896,0.3442383110523224,-0.0263671912252903,0.152587890625,0.0,-0.30517578125,3.423051357269287
338.434814453125,-0.5484223365783691,0.2134404331445694,-0.6439239382743835,-0.48891520500183105,154.0,-66.20474243164062,78.62004852294922,-0.9384766817092896,0.3388672173023224,-0.0244140662252903,0.0,0.152587890625,-0.152587890625,3.4229512214660645
338.4878845214844,-0.5508849620819092,0.2106097787618637,-0.6454371213912964,-0.4853660464286804,153.0,-66.2866439819336,78.80066680908203,-0.9404298067092896,0.3344726860523224,-0.01953125186264515,-0.30517578125,0.457763671875,-0.762939453125,3.423051357269287
338.5417175292969,-0.5534155368804932,0.20779606699943542,-0.6468848586082458,-0.48175933957099915,153.0,-66.37782287597656,78.96158599853516,-0.9433594942092896,0.3393554985523224,-0.02001953311264515,0.0,0.0,0.30517578125,3.4229512214660645
338.5943603515625,-0.5543903112411499,0.20616039633750916,-0.647676408290863,-0.4802757203578949,153.0,-66.3708267211914,79.06593322753906,-0.9375001192092896,0.3427734673023224,-0.0278320349752903,-0.30517578125,0.0,0.0,3.423051357269287
338.6478271484375,-0.5566239953041077,0.20282498002052307,-0.6491892337799072,-0.47705885767936707,152.0,-66.38064575195312,79.23567962646484,-0.9389649629592896,0.3432617485523224,-0.0244140662252903,0.0,0.0,0.30517578125,3.423051357269287
338.70111083984375,-0.5578495860099792,0.2012616991996765,-0.649854302406311,-0.47538086771965027,152.0,-66.40445709228516,79.29301452636719,-0.9384766817092896,0.3398437798023224,-0.0234375037252903,-0.30517578125,0.0,-0.30517578125,3.4231514930725098
338.7550354003906,-0.5606640577316284,0.19796577095985413,-0.6510416269302368,-0.47181591391563416,151.0,-66.4681167602539,79.3321762084961,-0.9409180879592896,0.3378906548023224,-0.02148437686264515,-0.152587890625,0.152587890625,0.152587890625,3.423051357269287
338.8080749511719,-0.5621638894081116,0.19632422924041748,-0.6515452265739441,-0.4700184464454651,151.0,-66.5060806274414,79.31829833984375,-0.9394532442092896,0.3457031548023224,-0.02099609561264515,0.0,-0.152587890625,-0.152587890625,3.423051357269287
338.8613586425781,-0.5648584961891174,0.19287313520908356,-0.6527550220489502,-0.4665251672267914,150.0,-66.54727935791016,79.36917114257812,-0.9414063692092896,0.3383789360523224,-0.02148437686264515,0.0,0.152587890625,0.0,3.423051357269287
338.9150085449219,-0.5674675703048706,0.18955044448375702,-0.6539660096168518,-0.4630115032196045,150.0,-66.59747314453125,79.43891143798828,-0.9379884004592896,0.3393554985523224,-0.0253906287252903,0.0,-0.152587890625,0.0,3.423051357269287
338.9679260253906,-0.5685967206954956,0.1881358027458191,-0.6545575857162476,-0.4613644778728485,149.0,-66.62920379638672,79.49567413330078,-0.9418946504592896,0.3349609673023224,-0.01855468936264515,-0.457763671875,0.457763671875,-0.30517578125,3.423051357269287
339.0216064453125,-0.5710223913192749,0.18499518930912018,-0.6557077169418335,-0.4579930901527405,149.0,-66.67889404296875,79.57295989990234,-0.9409180879592896,0.3432617485523224,-0.02148437686264515,0.0,0.152587890625,0.0,3.4229512214660645
339.07464599609375,-0.5720711350440979,0.18330970406532288,-0.6563587784767151,-0.4564267098903656,149.0,-66.67919158935547,79.64154052734375,-0.9384766817092896,0.3427734673023224,-0.0268554724752903,0.0,0.0,0.152587890625,3.4229512214660645
339.1283264160156,-0.5743228793144226,0.1802968829870224,-0.6575683951377869,-0.45304539799690247,148.0,-66.73365020751953,79.7640151977539,-0.9414063692092896,0.3427734673023224,-0.0239257849752903,0.0,0.152587890625,-0.30517578125,3.4229512214660645
339.1817626953125,-0.5756468176841736,0.17871278524398804,-0.6580912470817566,-0.45122990012168884,148.0,-66.77122497558594,79.78340148925781,-0.9389649629592896,0.3403320610523224,-0.02197265811264515,0.152587890625,-0.152587890625,-0.457763671875,3.4229512214660645
339.23504638671875,-0.5780307650566101,0.17581923305988312,-0.6591774821281433,-0.4477200210094452,147.0,-66.85095977783203,79.86973571777344,-0.9394532442092896,0.3413086235523224,-0.01953125186264515,0.457763671875,0.0,-0.152587890625,3.422851085662842
339.2879943847656,-0.5805904865264893,0.17265744507312775,-0.6601844429969788,-0.44414040446281433,147.0,-66.92051696777344,79.90791320800781,-0.9409180879592896,0.3369140923023224,-0.0302734412252903,0.762939453125,-1.373291015625,0.152587890625,3.422851085662842
339.3411865234375,-0.5821038484573364,0.17101295292377472,-0.660488486289978,-0.442340224981308,146.0,-66.96083068847656,79.84235382080078,-0.9394532442092896,0.3305664360523224,-0.01953125186264515,1.373291015625,0.0,-0.6103515625,3.4229512214660645
339.394775390625,-0.5841490626335144,0.16816499829292297,-0.6618244051933289,-0.43872424960136414,146.0,-67.03807830810547,80.04853820800781,-0.9409180879592896,0.3359375298023224,-0.0292968787252903,0.6103515625,-0.6103515625,0.762939453125,3.422851085662842
339.4483947753906,-0.5849246978759766,0.16622747480869293,-0.6624771952629089,-0.43744221329689026,146.0,-66.9887924194336,80.13334655761719,-0.9433594942092896,0.3398437798023224,-0.02148437686264515,0.6103515625,-0.152587890625,1.220703125,3.422851085662842
339.5009460449219,-0.5858455896377563,0.1635397970676422,-0.6640285849571228,-0.4348629415035248,146.0,-66.96576690673828,80.49085998535156,-0.9404298067092896,0.3325195610523224,-0.0263671912252903,-0.91552734375,0.30517578125,0.30517578125,3.422851085662842
339.5549011230469,-0.5861262679100037,0.162553608417511,-0.6647073030471802,-0.433816522359848,146.0,-66.9614486694336,80.66476440429688,-0.9404298067092896,0.3339844048023224,-0.01953125186264515,-0.91552734375,0.0,0.91552734375,3.4227511882781982
339.6078186035156,-0.5875032544136047,0.1598694771528244,-0.6657296419143677,-0.43137672543525696,145.0,-66.95015716552734,80.81584930419922,-0.9414063692092896,0.3466797173023224,-0.01562500186264515,0.30517578125,-0.457763671875,1.068115234375,3.4227511882781982
339.6609802246094,-0.5887282490730286,0.15688244998455048,-0.6671133041381836,-0.4286571145057678,145.0,-66.92527770996094,81.09117126464844,-0.9389649629592896,0.3476562798023224,-0.0288085974752903,0.762939453125,-0.30517578125,0.457763671875,3.4226510524749756
339.7144775390625,-0.5897321701049805,0.15484707057476044,-0.6676894426345825,-0.4271176755428314,145.0,-66.8956527709961,81.14179229736328,-0.9311524629592896,0.3525390923023224,-0.0249023474752903,1.373291015625,-1.678466796875,0.0,3.4226510524749756
339.76806640625,-0.5913634300231934,0.15214882791042328,-0.6688218712806702,-0.4240487813949585,145.0,-66.93641662597656,81.32969665527344,-0.9384766817092896,0.3398437798023224,-0.0244140662252903,0.762939453125,-0.457763671875,-1.8310546875,3.422550916671753
339.8209533691406,-0.5926761627197266,0.1513528823852539,-0.6692389249801636,-0.42183735966682434,144.0,-67.06925964355469,81.37596893310547,-0.9453126192092896,0.3295898735523224,-0.01464843936264515,0.0,-0.30517578125,-1.373291015625,3.422550916671753
339.8742370605469,-0.5941363573074341,0.14942623674869537,-0.670336127281189,-0.4187162220478058,144.0,-67.17242431640625,81.604736328125,-0.9443360567092896,0.3295898735523224,-0.01757812686264515,0.0,0.0,0.0,3.422550916671753
339.9274597167969,-0.5947133302688599,0.14831098914146423,-0.6709675192832947,-0.4172799587249756,144.0,-67.19673919677734,81.75003814697266,-0.9453126192092896,0.3388672173023224,-0.01806640811264515,0.0,-0.152587890625,0.30517578125,3.422550916671753
339.9813537597656,-0.5958672761917114,0.14568543434143066,-0.6721600294113159,-0.4146309792995453,144.0,-67.19772338867188,81.99754333496094,-0.9331055879592896,0.3393554985523224,-0.0253906287252903,0.30517578125,-0.152587890625,0.0,3.422550916671753
340.0339660644531,-0.596928060054779,0.14343973994255066,-0.6734203696250916,-0.41183367371559143,144.0,-67.23706817626953,82.2972640991211,-0.9399415254592896,0.3408203423023224,-0.0273437537252903,-0.30517578125,-0.30517578125,0.6103515625,3.4226510524749756
340.0879821777344,-0.5973011255264282,0.14249946177005768,-0.6740102767944336,-0.4106525480747223,144.0,-67.25128936767578,82.44993591308594,-0.9433594942092896,0.3388672173023224,-0.01757812686264515,-0.91552734375,0.457763671875,-0.152587890625,3.422550916671753
340.1413879394531,-0.5981910824775696,0.14057853817939758,-0.6750687956809998,-0.4082735776901245,143.0,-67.28385162353516,82.7042465209961,-0.9394532442092896,0.3349609673023224,-0.01660156436264515,-0.30517578125,0.152587890625,0.30517578125,3.422550916671753
340.1941833496094,-0.598587155342102,0.13965140283107758,-0.6755985617637634,-0.4071333408355713,143.0,-67.29772186279297,82.8364028930664,-0.9404298067092896,0.3393554985523224,-0.01562500186264515,-0.30517578125,0.6103515625,-0.152587890625,3.4226510524749756
340.2474365234375,-0.5995983481407166,0.13756626844406128,-0.6767302751541138,-0.40446701645851135,143.0,-67.34111785888672,83.10877990722656,-0.9423829317092896,0.3374023735523224,-0.02197265811264515,0.457763671875,-0.30517578125,0.0,3.4227511882781982
340.30096435546875,-0.6001565456390381,0.13618944585323334,-0.6772931218147278,-0.4031609892845154,143.0,-67.33540344238281,83.22579193115234,-0.9384766817092896,0.3442383110523224,-0.02148437686264515,0.152587890625,-0.152587890625,0.6103515625,3.4226510524749756
340.35455322265625,-0.6011133790016174,0.13416019082069397,-0.6783496737480164,-0.40063145756721497,143.0,-67.372802734375,83.48014068603516,-0.9418946504592896,0.3452148735523224,-0.01611328311264515,0.0,0.0,-1.373291015625,3.4226510524749756
340.4075012207031,-0.6017181873321533,0.13349060714244843,-0.6786966919898987,-0.39935746788978577,143.0,-67.42671203613281,83.55296325683594,-0.9394532442092896,0.3295898735523224,-0.02294922061264515,-1.220703125,0.152587890625,-0.762939453125,3.4226510524749756
340.46124267578125,-0.6025272011756897,0.13256220519542694,-0.6795830130577087,-0.3969323933124542,143.0,-67.5436782836914,83.80980682373047,-0.9448243379592896,0.3320312798023224,-0.02099609561264515,-1.52587890625,0.457763671875,0.0,3.422550916671753
340.5138854980469,-0.6032045483589172,0.13100303709506989,-0.6804613471031189,-0.39491117000579834,143.0,-67.57563018798828,84.03816223144531,-0.9394532442092896,0.3334961235523224,-0.02099609561264515,-0.6103515625,0.6103515625,0.152587890625,3.4226510524749756
340.56787109375,-0.6034305691719055,0.12984196841716766,-0.6809800863265991,-0.3940545916557312,143.0,-67.54473876953125,84.16759490966797,-0.9375001192092896,0.3383789360523224,-0.0239257849752903,0.0,-0.30517578125,1.52587890625,3.4226510524749756
340.6207275390625,-0.6042177081108093,0.12738360464572906,-0.6820242404937744,-0.3918383717536926,142.0,-67.51952362060547,84.41204071044922,-0.9399415254592896,0.3422851860523224,-0.01953125186264515,0.762939453125,-0.30517578125,0.6103515625,3.4226510524749756
340.6744689941406,-0.6050013899803162,0.12570279836654663,-0.6824743747711182,-0.390386164188385,142.0,-67.50922393798828,84.47123718261719,-0.9399415254592896,0.3496094048023224,-0.01757812686264515,1.52587890625,-0.91552734375,0.0,3.4226510524749756
340.7270202636719,-0.6061708927154541,0.1234545037150383,-0.6832989454269409,-0.3878382742404938,142.0,-67.54092407226562,84.63441467285156,-0.9379884004592896,0.3344726860523224,-0.02148437686264515,0.30517578125,0.0,-1.068115234375,3.4226510524749756
340.7809143066406,-0.6067660450935364,0.1229855939745903,-0.6837608218193054,-0.38623932003974915,142.0,-67.63360595703125,84.7692642211914,-0.9472657442092896,0.3315429985523224,-0.01806640811264515,-0.152587890625,0.152587890625,-0.457763671875,3.422550916671753
340.8339538574219,-0.6076312065124512,0.12176506221294403,-0.6845311522483826,-0.3838942050933838,142.0,-67.72494506835938,84.97813415527344,-0.9384766817092896,0.3310547173023224,-0.0253906287252903,-1.8310546875,1.678466796875,-0.6103515625,3.422550916671753
340.8878173828125,-0.6079603433609009,0.12102093547582626,-0.6854563355445862,-0.3819526433944702,142.0,-67.80583190917969,85.2916030883789,-0.9423829317092896,0.3339844048023224,-0.02246093936264515,-1.678466796875,0.762939453125,0.30517578125,3.422550916671753
340.94049072265625,-0.6079766154289246,0.12033200263977051,-0.6859147548675537,-0.3813210725784302,142.0,-67.7908935546875,85.43524932861328,-0.9394532442092896,0.3417969048023224,-0.01953125186264515,-0.152587890625,0.152587890625,0.6103515625,3.4226510524749756
340.99444580078125,-0.6088099479675293,0.1181575134396553,-0.6866970658302307,-0.3792578876018524,142.0,-67.78328704833984,85.60551452636719,-0.9384766817092896,0.3481445610523224,-0.02246093936264515,0.6103515625,-0.457763671875,0.0,3.422550916671753
341.04736328125,-0.6094372868537903,0.1168578639626503,-0.6870399117469788,-0.3780299127101898,141.0,-67.7843017578125,85.6556625366211,-0.9389649629592896,0.3452148735523224,-0.0268554724752903,1.068115234375,-0.762939453125,0.0,3.4226510524749756
341.10101318359375,-0.6106841564178467,0.11456456035375595,-0.6876680850982666,-0.3755696415901184,141.0,-67.81204223632812,85.75175476074219,-0.9443360567092896,0.3393554985523224,-0.02294922061264515,0.762939453125,-0.91552734375,0.152587890625,3.422550916671753
341.1539001464844,-0.6111421585083008,0.11343127489089966,-0.6879645586013794,-0.37462446093559265,141.0,-67.80089569091797,85.79924011230469,-0.9365235567092896,0.3344726860523224,-0.01611328311264515,0.6103515625,-0.762939453125,0.152587890625,3.4226510524749756
341.2076416015625,-0.6125297546386719,0.11144544184207916,-0.688381552696228,-0.3721802532672882,141.0,-67.85973358154297,85.82745361328125,-0.9443360567092896,0.3291015923023224,-0.0244140662252903,0.0,0.762939453125,1.068115234375,3.422550916671753
341.2603759765625,-0.6133083701133728,0.10903266072273254,-0.6890795230865479,-0.37031641602516174,140.0,-67.81806182861328,85.96559143066406,-0.9414063692092896,0.3339844048023224,-0.02246093936264515,-1.220703125,0.152587890625,1.8310546875,3.4226510524749756
341.3143310546875,-0.613488495349884,0.10774418711662292,-0.6892208456993103,-0.3701322376728058,140.0,-67.73136901855469,85.95489501953125,-0.9335938692092896,0.3530273735523224,-0.01904297061264515,-0.6103515625,0.30517578125,1.678466796875,3.422550916671753
341.3668518066406,-0.6148222088813782,0.10524360090494156,-0.6894469261169434,-0.36821249127388,140.0,-67.71040344238281,85.89161682128906,-0.9414063692092896,0.3476562798023224,-0.0239257849752903,0.30517578125,0.0,0.457763671875,3.4226510524749756
341.4200744628906,-0.6158336400985718,0.10369373857975006,-0.6894159913063049,-0.36701804399490356,139.0,-67.70549011230469,85.78147888183594,-0.9370118379592896,0.3432617485523224,-0.0268554724752903,-0.91552734375,0.152587890625,0.0,3.422550916671753
341.4736328125,-0.618246853351593,0.10086959600448608,-0.6890965104103088,-0.36433812975883484,139.0,-67.75366973876953,85.46371459960938,-0.9438477754592896,0.3403320610523224,-0.0268554724752903,-0.6103515625,-0.152587890625,-0.152587890625,3.4224507808685303
341.5266418457031,-0.6204204559326172,0.09827673435211182,-0.6883977055549622,-0.3626691401004791,138.0,-67.74022674560547,85.01737976074219,-0.9335938692092896,0.3413086235523224,-0.0249023474752903,0.30517578125,-0.6103515625,0.152587890625,3.4224507808685303
341.5797119140625,-0.6248453855514526,0.09094667434692383,-0.6874201893806458,-0.3588182330131531,136.0,-67.56744384765625,84.22991943359375,-0.9414063692092896,0.3413086235523224,-0.02246093936264515,0.152587890625,-0.152587890625,0.152587890625,3.4224507808685303
341.63299560546875,-0.6209375262260437,0.07972829043865204,-0.6934269666671753,-0.35670599341392517,137.0,-66.63957977294922,86.29753112792969,-0.9389649629592896,0.3417969048023224,-0.02246093936264515,0.6103515625,0.457763671875,-0.30517578125,3.4224507808685303
341.6867370605469,-0.616471529006958,0.07432936131954193,-0.6984033584594727,-0.3559085428714752,138.0,-66.06417846679688,88.10502624511719,-0.9389649629592896,0.3447265923023224,-0.0351562537252903,0.6103515625,-0.457763671875,-0.30517578125,3.4224507808685303
341.7397155761719,-0.6082814931869507,0.06601021438837051,-0.7068102359771729,-0.35504305362701416,141.0,-65.06031036376953,91.07026672363281,-0.9399415254592896,0.3413086235523224,-0.01904297061264515,1.068115234375,0.152587890625,-0.91552734375,3.4224507808685303
341.7934265136719,-0.6050024032592773,0.06242641061544418,-0.710459291934967,-0.354009747505188,141.0,-64.6699447631836,92.3172836303711,-0.9394532442092896,0.3369140923023224,-0.0253906287252903,0.91552734375,-0.6103515625,0.152587890625,3.4224507808685303
341.84600830078125,-0.5997871160507202,0.05665428563952446,-0.7162441611289978,-0.3521935045719147,143.0,-64.039306640625,94.24858093261719,-0.9423829317092896,0.3398437798023224,-0.01708984561264515,0.152587890625,0.0,-0.457763671875,3.4224507808685303
341.89990234375,-0.5976473093032837,0.054134760051965714,-0.7187216281890869,-0.3511787950992584,143.0,-63.78023910522461,95.06193542480469,-0.9423829317092896,0.3383789360523224,-0.02148437686264515,-0.30517578125,0.0,-0.30517578125,3.4224507808685303
341.95281982421875,-0.5939034819602966,0.05081544071435928,-0.7229627966880798,-0.34931546449661255,144.0,-63.411170959472656,96.48025512695312,-0.9379884004592896,0.3408203423023224,-0.0234375037252903,-0.30517578125,0.152587890625,-0.762939453125,3.4224507808685303
342.0066223144531,-0.5920432209968567,0.04957524687051773,-0.7249913215637207,-0.34844616055488586,145.0,-63.252803802490234,97.1657943725586,-0.9414063692092896,0.3378906548023224,-0.02099609561264515,-0.30517578125,-0.152587890625,-0.152587890625,3.4224507808685303
342.05938720703125,-0.588860273361206,0.04699492081999779,-0.7286838293075562,-0.34648966789245605,146.0,-62.967952728271484,98.39795684814453,-0.9375001192092896,0.3374023735523224,-0.02050781436264515,-0.457763671875,0.30517578125,-0.6103515625,3.4224507808685303
342.1134338378906,-0.5864673852920532,0.044634684920310974,-0.7318530678749084,-0.3441728949546814,146.0,-62.765380859375,99.45817565917969,-0.9438477754592896,0.3359375298023224,-0.0258789099752903,0.0,-0.30517578125,-0.152587890625,3.4224507808685303
342.1663818359375,-0.5854573249816895,0.04322277754545212,-0.7333635091781616,-0.34285497665405273,147.0,-62.665931701660156,99.95502471923828,-0.9389649629592896,0.3374023735523224,-0.0239257849752903,0.0,0.0,0.0,3.4224507808685303
342.2198486328125,-0.583473265171051,0.040920764207839966,-0.7361060976982117,-0.34063512086868286,147.0,-62.483097076416016,100.86076354980469,-0.9379884004592896,0.3378906548023224,-0.02246093936264515,0.0,-0.152587890625,0.6103515625,3.4224507808685303
342.27294921875,-0.5823004245758057,0.03998267278075218,-0.7375681400299072,-0.33958932757377625,147.0,-62.39064025878906,101.3505859375,-0.9423829317092896,0.3403320610523224,-0.02246093936264515,0.0,0.152587890625,0.0,3.422550916671753
342.3260498046875,-0.5804230570793152,0.03785631060600281,-0.7401381134986877,-0.3374486565589905,148.0,-62.21900177001953,102.19721984863281,-0.9389649629592896,0.3369140923023224,-0.02001953311264515,0.152587890625,-0.152587890625,0.457763671875,3.422550916671753
342.379638671875,-0.5796546339988708,0.03685307130217552,-0.7413039207458496,-0.33631956577301025,148.0,-62.15192413330078,102.584716796875,-0.9418946504592896,0.3408203423023224,-0.01953125186264515,0.457763671875,0.0,0.0,3.4224507808685303
342.4332275390625,-0.5782279372215271,0.03497181087732315,-0.743543267250061,-0.33402544260025024,149.0,-62.03544998168945,103.33551788330078,-0.9399415254592896,0.3398437798023224,-0.02246093936264515,0.152587890625,-0.30517578125,0.30517578125,3.4224507808685303
342.4858703613281,-0.5765268802642822,0.0335550419986248,-0.7458417415618896,-0.33198022842407227,149.0,-61.91800308227539,104.11678314208984,-0.9389649629592896,0.3403320610523224,-0.0239257849752903,0.0,0.152587890625,-0.152587890625,3.422550916671753
342.5398864746094,-0.5758259892463684,0.03314557671546936,-0.7468720078468323,-0.33092001080513,149.0,-61.89353561401367,104.48441314697266,-0.9409180879592896,0.3393554985523224,-0.02246093936264515,-0.152587890625,0.152587890625,0.0,3.4224507808685303
342.5928039550781,-0.5745939016342163,0.03206402063369751,-0.7488000988960266,-0.32880401611328125,150.0,-61.83567810058594,105.1629867553711,-0.9399415254592896,0.3388672173023224,-0.0263671912252903,0.0,0.0,-0.152587890625,3.422550916671753
342.64654541015625,-0.5736887454986572,0.03071361966431141,-0.7504627108573914,-0.3267163634300232,150.0,-61.779380798339844,105.73989868164062,-0.9399415254592896,0.3388672173023224,-0.02099609561264515,0.152587890625,0.152587890625,0.0,3.4224507808685303
342.6995849609375,-0.5735001564025879,0.030011534690856934,-0.7510963678359985,-0.32565510272979736,150.0,-61.769840240478516,105.96373748779297,-0.9365235567092896,0.3427734673023224,-0.02197265811264515,0.457763671875,-0.30517578125,0.152587890625,3.4224507808685303
342.7527770996094,-0.5729769468307495,0.029036870226264,-0.7524402737617493,-0.3235552906990051,150.0,-61.76951599121094,106.45882415771484,-0.9433594942092896,0.3359375298023224,-0.02246093936264515,0.0,0.0,-0.152587890625,3.4223506450653076
342.8064270019531,-0.57253497838974,0.02862280048429966,-0.7532562017440796,-0.3224741518497467,150.0,-61.76217269897461,106.75926208496094,-0.9404298067092896,0.3374023735523224,-0.02246093936264515,0.0,0.0,-0.30517578125,3.4223506450653076
342.8601989746094,-0.5722742080688477,0.027692213654518127,-0.7543854713439941,-0.3203715682029724,151.0,-61.784339904785156,107.18989562988281,-0.9404298067092896,0.3364258110523224,-0.0244140662252903,0.0,-0.152587890625,0.152587890625,3.422250509262085
342.9131774902344,-0.5720964074134827,0.02722519263625145,-0.7549618482589722,-0.31936973333358765,151.0,-61.788883209228516,107.40689086914062,-0.9404298067092896,0.3432617485523224,-0.02246093936264515,0.152587890625,0.0,0.0,3.422250509262085
342.9662780761719,-0.5716050863265991,0.02664206735789776,-0.7561291456222534,-0.3175320327281952,151.0,-61.8036994934082,107.8564224243164,-0.9379884004592896,0.3388672173023224,-0.02050781436264515,0.0,0.0,-0.30517578125,3.4221503734588623
343.02020263671875,-0.5715804100036621,0.026321347802877426,-0.7566166520118713,-0.31644025444984436,151.0,-61.83509826660156,108.05917358398438,-0.9414063692092896,0.3383789360523224,-0.02294922061264515,0.152587890625,-0.152587890625,-0.762939453125,3.4221503734588623
343.0729675292969,-0.5713728070259094,0.02591724880039692,-0.757570743560791,-0.3145601451396942,151.0,-61.88648223876953,108.45510864257812,-0.9414063692092896,0.3354492485523224,-0.01904297061264515,0.0,0.0,-0.30517578125,3.4221503734588623
343.126953125,-0.5715063214302063,0.02577928826212883,-0.7578846216201782,-0.31357112526893616,151.0,-61.93798828125,108.60774993896484,-0.9418946504592896,0.3364258110523224,-0.02099609561264515,-0.30517578125,0.152587890625,-0.30517578125,3.4221503734588623
343.1796875,-0.5713281035423279,0.02541392482817173,-0.7587829232215881,-0.31174835562705994,151.0,-61.9909553527832,108.98762512207031,-0.9423829317092896,0.3325195610523224,-0.0253906287252903,0.0,0.30517578125,-0.152587890625,3.4221503734588623
343.2329406738281,-0.5714767575263977,0.024840474128723145,-0.7594073414802551,-0.309996634721756,152.0,-62.05138397216797,109.26470947265625,-0.9404298067092896,0.3388672173023224,-0.02197265811264515,-0.152587890625,-0.152587890625,0.152587890625,3.4221503734588623
343.2864990234375,-0.5713627338409424,0.02469482831656933,-0.7598002552986145,-0.3092547357082367,152.0,-62.069583892822266,109.42962646484375,-0.9448243379592896,0.3344726860523224,-0.02099609561264515,0.0,0.0,-0.152587890625,3.4220502376556396
343.3401794433594,-0.5714066028594971,0.024001652374863625,-0.7604100108146667,-0.3077256977558136,152.0,-62.10157012939453,109.68309783935547,-0.9379884004592896,0.3344726860523224,-0.02148437686264515,0.0,-0.152587890625,0.30517578125,3.4220502376556396
343.3931579589844,-0.571469783782959,0.0236502792686224,-0.7607091665267944,-0.30689510703086853,152.0,-62.12392044067383,109.81234741210938,-0.9438477754592896,0.3374023735523224,-0.02246093936264515,0.30517578125,-0.457763671875,0.91552734375,3.4220502376556396
343.4464416503906,-0.5714436769485474,0.022977277636528015,-0.7613317370414734,-0.3054475486278534,152.0,-62.147483825683594,110.06748962402344,-0.9384766817092896,0.3403320610523224,-0.02148437686264515,0.457763671875,-0.30517578125,0.152587890625,3.4220502376556396
343.49993896484375,-0.571444571018219,0.022681279107928276,-0.761904239654541,-0.30403703451156616,152.0,-62.197914123535156,110.32722473144531,-0.9458009004592896,0.3408203423023224,-0.0234375037252903,0.0,0.0,0.0,3.4220502376556396
343.5530090332031,-0.5713621973991394,0.02264171466231346,-0.7622297406196594,-0.3033786416053772,152.0,-62.221580505371094,110.4734878540039,-0.9394532442092896,0.3364258110523224,-0.0249023474752903,-0.152587890625,0.0,-0.457763671875,3.4220502376556396
343.6063537597656,-0.571337103843689,0.022654887288808823,-0.762774646282196,-0.3020521402359009,152.0,-62.287086486816406,110.7390365600586,-0.9418946504592896,0.3359375298023224,-0.01904297061264515,0.0,0.0,-0.152587890625,3.4221503734588623
343.66033935546875,-0.5713943243026733,0.022475991398096085,-0.7629964351654053,-0.30139651894569397,152.0,-62.3121337890625,110.84423828125,-0.9384766817092896,0.3383789360523224,-0.02246093936264515,-0.152587890625,0.0,-0.30517578125,3.4221503734588623
343.7135009765625,-0.5714840888977051,0.022416796535253525,-0.7633991241455078,-0.30020859837532043,152.0,-62.3748779296875,111.05186462402344,-0.9414063692092896,0.3344726860523224,-0.02099609561264515,0.0,0.0,-0.152587890625,3.422250509262085
343.76715087890625,-0.5715781450271606,0.022337758913636208,-0.7635841965675354,-0.2995641529560089,152.0,-62.409366607666016,111.15126037597656,-0.9394532442092896,0.3364258110523224,-0.02246093936264515,0.30517578125,0.0,-0.152587890625,3.4221503734588623
343.820068359375,-0.571628749370575,0.02223840169608593,-0.7640259861946106,-0.29834604263305664,152.0,-62.46739196777344,111.3727035522461,-0.9438477754592896,0.3339844048023224,-0.02148437686264515,0.152587890625,0.0,0.0,3.422250509262085
343.87322998046875,-0.5717862248420715,0.021999936550855637,-0.7643656134605408,-0.297189861536026,152.0,-62.52146911621094,111.5490951538086,-0.9404298067092896,0.3359375298023224,-0.02197265811264515,-0.152587890625,0.0,0.0,3.422250509262085
343.926513671875,-0.5720418095588684,0.021956386044621468,-0.7643706202507019,-0.29668787121772766,152.0,-62.56477737426758,111.58358001708984,-0.9409180879592896,0.3344726860523224,-0.02294922061264515,-0.152587890625,0.152587890625,0.0,3.4223506450653076
343.980224609375,-0.5721588730812073,0.021741628646850586,-0.7646781206130981,-0.29568392038345337,153.0,-62.60955047607422,111.74127197265625,-0.9414063692092896,0.3354492485523224,-0.01953125186264515,0.0,-0.152587890625,0.30517578125,3.422250509262085
344.0337829589844,-0.5722507834434509,0.021682947874069214,-0.7647855281829834,-0.29523223638534546,153.0,-62.635616302490234,111.80477142333984,-0.9409180879592896,0.3383789360523224,-0.0239257849752903,0.0,0.0,-0.152587890625,3.422250509262085
344.08673095703125,-0.5724378824234009,0.021581295877695084,-0.7649977207183838,-0.2943258583545685,153.0,-62.68926239013672,111.93251037597656,-0.9389649629592896,0.3359375298023224,-0.02294922061264515,0.152587890625,0.152587890625,0.457763671875,3.422250509262085
344.139892578125,-0.5727316737174988,0.02153719775378704,-0.7649601697921753,-0.293854683637619,153.0,-62.734275817871094,111.9516830444336,-0.9438477754592896,0.3374023735523224,-0.01806640811264515,0.152587890625,0.0,0.0,3.422250509262085
344.19329833984375,-0.5730919241905212,0.02165013924241066,-0.7650343775749207,-0.29294952750205994,153.0,-62.81736373901367,112.04891967773438,-0.9414063692092896,0.3354492485523224,-0.02148437686264515,0.0,0.0,0.0,3.422250509262085
344.2464294433594,-0.5733020305633545,0.021568233147263527,-0.7652674913406372,-0.2919336259365082,153.0,-62.879756927490234,112.19413757324219,-0.9384766817092896,0.3339844048023224,-0.0263671912252903,-0.30517578125,0.457763671875,0.0,3.4223506450653076
344.3000183105469,-0.573250949382782,0.021870609372854233,-0.765387237071991,-0.29169750213623047,153.0,-62.90809631347656,112.2701187133789,-0.9477540254592896,0.3334961235523224,-0.02001953311264515,0.0,0.0,0.30517578125,3.422250509262085
344.3536376953125,-0.573800802230835,0.02182995341718197,-0.7652739882469177,-0.2909155786037445,153.0,-62.99047088623047,112.28852844238281,-0.9389649629592896,0.3369140923023224,-0.0234375037252903,0.0,0.0,0.0,3.422250509262085
344.40618896484375,-0.5738101005554199,0.02200838178396225,-0.7653727531433105,-0.2906237840652466,153.0,-63.0180549621582,112.35415649414062,-0.9418946504592896,0.3378906548023224,-0.0244140662252903,-0.152587890625,0.30517578125,0.0,3.422250509262085
344.4601745605469,-0.5741693377494812,0.022150922566652298,-0.7653675079345703,-0.28991639614105225,153.0,-63.093345642089844,112.4146728515625,-0.9409180879592896,0.3378906548023224,-0.0239257849752903,0.0,0.457763671875,-0.457763671875,3.4221503734588623
344.51312255859375,-0.5743271708488464,0.02205774001777172,-0.7654162049293518,-0.2894821763038635,153.0,-63.12176513671875,112.45709228515625,-0.9384766817092896,0.3378906548023224,-0.0253906287252903,0.762939453125,-0.457763671875,0.152587890625,3.422250509262085
344.56689453125,-0.5754402875900269,0.021950166672468185,-0.764946460723877,-0.28851965069770813,153.0,-63.256263732910156,112.36802673339844,-0.9443360567092896,0.3354492485523224,-0.0268554724752903,0.0,0.0,-0.152587890625,3.422250509262085
344.61981201171875,-0.5766997933387756,0.021979033946990967,-0.7642759680747986,-0.2877788543701172,152.0,-63.40147399902344,112.20393371582031,-0.9384766817092896,0.3354492485523224,-0.01806640811264515,0.30517578125,-0.30517578125,-0.30517578125,3.422250509262085
344.6736755371094,-0.5773965716362,0.022066723555326462,-0.763929009437561,-0.2872958779335022,152.0,-63.49036407470703,112.13069152832031,-0.9438477754592896,0.3334961235523224,-0.0249023474752903,-0.152587890625,-0.762939453125,0.0,3.422250509262085
344.7266845703125,-0.5786449313163757,0.0220529492944479,-0.7632660269737244,-0.2865462899208069,152.0,-63.631805419921875,111.96460723876953,-0.9414063692092896,0.3378906548023224,-0.01708984561264515,0.0,-0.91552734375,0.0,3.4221503734588623
344.7799377441406,-0.579303503036499,0.021773630753159523,-0.7628722786903381,-0.2862856388092041,152.0,-63.680572509765625,111.83351135253906,-0.9467774629592896,0.3334961235523224,-0.02050781436264515,0.457763671875,-0.762939453125,0.91552734375,3.4221503734588623
344.833251953125,-0.5801903605461121,0.021529944613575935,-0.7625377178192139,-0.28539758920669556,152.0,-63.782466888427734,111.77090454101562,-0.9448243379592896,0.3383789360523224,-0.0288085974752903,1.373291015625,-0.30517578125,0.0,3.422250509262085
344.8866271972656,-0.5803606510162354,0.021169306710362434,-0.7624837160110474,-0.28522318601608276,151.0,-63.780372619628906,111.74181365966797,-0.9404298067092896,0.3408203423023224,-0.01611328311264515,0.0,0.152587890625,-0.152587890625,3.422250509262085
344.93994140625,-0.580951988697052,0.021353816613554955,-0.7621791362762451,-0.2848188579082489,151.0,-63.862953186035156,111.68114471435547,-0.9345704317092896,0.3383789360523224,-0.01855468936264515,-0.30517578125,-0.30517578125,-0.457763671875,3.4223506450653076
344.9939880371094,-0.5816953778266907,0.021548975259065628,-0.7618611454963684,-0.2841370403766632,151.0,-63.97307586669922,111.63688659667969,-0.9453126192092896,0.3320312798023224,-0.0366210974752903,0.0,-0.91552734375,-0.152587890625,3.4223506450653076
345.04705810546875,-0.5821637511253357,0.02140904776751995,-0.7616693377494812,-0.28370219469070435,151.0,-64.02433776855469,111.59468841552734,-0.9409180879592896,0.3330078423023224,-0.02148437686264515,0.0,0.457763671875,0.457763671875,3.4223506450653076
345.1007385253906,-0.5827995538711548,0.021357141435146332,-0.7613974213600159,-0.2831297516822815,151.0,-64.10262298583984,111.54106140136719,-0.9433594942092896,0.3334961235523224,-0.01953125186264515,0.0,-0.457763671875,0.6103515625,3.4223506450653076
345.1534423828125,-0.5832698941230774,0.021136276423931122,-0.7611069679260254,-0.2829587459564209,151.0,-64.13480377197266,111.43975067138672,-0.9423829317092896,0.3374023735523224,-0.01367187686264515,0.0,0.0,-0.457763671875,3.4223506450653076
345.20745849609375,-0.5845084190368652,0.02104288339614868,-0.7604150176048279,-0.28226956725120544,151.0,-64.2657241821289,111.2468490600586,-0.9428712129592896,0.3330078423023224,-0.0234375037252903,0.0,0.457763671875,0.30517578125,3.422250509262085
345.2607116699219,-0.5849255323410034,0.020896848291158676,-0.7602208256721497,-0.28193947672843933,151.0,-64.30680084228516,111.19452667236328,-0.9379884004592896,0.3349609673023224,-0.0258789099752903,0.30517578125,-0.30517578125,0.30517578125,3.422250509262085
345.31365966796875,-0.5859925746917725,0.020554369315505028,-0.7596305012702942,-0.28133919835090637,150.0,-64.4011459350586,111.01174926757812,-0.9428712129592896,0.3378906548023224,-0.02148437686264515,0.0,0.30517578125,0.0,3.4221503734588623
345.3667907714844,-0.5871664881706238,0.020444069057703018,-0.7588946223258972,-0.2808854579925537,150.0,-64.51258850097656,110.7815933227539,-0.9418946504592896,0.3374023735523224,-0.02050781436264515,0.0,-0.152587890625,0.152587890625,3.422250509262085
345.42041015625,-0.5876749157905579,0.02036425657570362,-0.7585761547088623,-0.2806878089904785,150.0,-64.55850219726562,110.67948150634766,-0.9418946504592896,0.3334961235523224,-0.02099609561264515,0.0,0.0,-0.152587890625,3.422250509262085
345.4740295410156,-0.5892545580863953,0.020048201084136963,-0.7576512098312378,-0.2798963189125061,150.0,-64.70524597167969,110.39115142822266,-0.9389649629592896,0.3364258110523224,-0.02246093936264515,0.0,0.0,-0.30517578125,3.422250509262085
345.5269470214844,-0.5898880958557129,0.020007872954010963,-0.7573103308677673,-0.2794868052005768,149.0,-64.77491760253906,110.29755401611328,-0.9467774629592896,0.3383789360523224,-0.0268554724752903,0.0,-0.152587890625,-0.152587890625,3.422250509262085
345.580810546875,-0.5912807583808899,0.019793804734945297,-0.7564927935600281,-0.27877235412597656,149.0,-64.90896606445312,110.04456329345703,-0.9409180879592896,0.3359375298023224,-0.0239257849752903,0.0,0.0,-0.30517578125,3.422250509262085
345.6335144042969,-0.5918711423873901,0.020012887194752693,-0.7561408877372742,-0.27845799922943115,149.0,-64.98828887939453,109.95560455322266,-0.9404298067092896,0.3349609673023224,-0.0234375037252903,0.0,0.152587890625,-0.30517578125,3.4221503734588623
345.68756103515625,-0.5932611227035522,0.0199758168309927,-0.7553015351295471,-0.2777802050113678,149.0,-65.13211059570312,109.70014953613281,-0.9394532442092896,0.3349609673023224,-0.02246093936264515,0.0,0.0,0.152587890625,3.4221503734588623
345.7403564453125,-0.5946443676948547,0.020088309422135353,-0.7544302344322205,-0.2771817743778229,148.0,-65.28128814697266,109.4347152709961,-0.9438477754592896,0.3374023735523224,-0.01562500186264515,-0.152587890625,0.762939453125,-0.457763671875,3.4220502376556396
345.7942199707031,-0.5952575206756592,0.02049385756254196,-0.7541053295135498,-0.2767198383808136,148.0,-65.38345336914062,109.37517547607422,-0.9350587129592896,0.3334961235523224,-0.02246093936264515,0.152587890625,0.152587890625,-1.983642578125,3.4220502376556396
345.846923828125,-0.5960037708282471,0.020769871771335602,-0.7537731528282166,-0.27599695324897766,148.0,-65.50094604492188,109.32244110107422,-0.9458009004592896,0.3271484673023224,-0.0244140662252903,-0.457763671875,0.457763671875,-0.762939453125,3.4220502376556396
345.90093994140625,-0.5971052646636963,0.021498700603842735,-0.7531859874725342,-0.27516257762908936,148.0,-65.68477630615234,109.21308898925781,-0.9448243379592896,0.3193359673023224,-0.010742188431322575,-2.44140625,4.57763671875,-2.288818359375,3.4220502376556396
345.953857421875,-0.5984585881233215,0.02382252924144268,-0.7523354887962341,-0.2743562161922455,148.0,-66.0013427734375,109.11006164550781,-0.9624024629592896,0.3344726860523224,-0.01464843936264515,-2.13623046875,0.91552734375,-3.96728515625,3.4220502376556396
346.0077209472656,-0.5995764136314392,0.025888722389936447,-0.7515162825584412,-0.27397260069847107,148.0,-66.25811004638672,108.9721450805664,-0.9448243379592896,0.3222656548023224,-0.0390625037252903,-2.74658203125,0.6103515625,-3.35693359375,3.421950101852417
346.060546875,-0.5995901226997375,0.028024822473526,-0.7514165639877319,-0.2740068733692169,148.0,-66.41133117675781,109.08209991455078,-0.9897462129592896,0.3173828423023224,-0.0424804724752903,-2.74658203125,0.762939453125,0.152587890625,3.421950101852417
346.1138000488281,-0.5984436273574829,0.024710822850465775,-0.751189112663269,-0.2774331569671631,148.0,-65.89518737792969,108.52997589111328,-0.9487305879592896,0.2763672173023224,-0.0273437537252903,-3.509521484375,-6.256103515625,18.9208984375,3.421950101852417
346.1674499511719,-0.5967898368835449,0.025364695116877556,-0.7517470717430115,-0.2794196307659149,148.0,-65.70578002929688,108.64501190185547,-0.9423829317092896,0.3662109673023224,-0.0014648439828306437,-3.662109375,4.2724609375,-3.35693359375,3.421950101852417
346.22125244140625,-0.592433750629425,0.02831680327653885,-0.7548272013664246,-0.28010058403015137,150.0,-65.53761291503906,109.92679595947266,-0.8945313692092896,0.3232422173023224,-0.0717773512005806,-0.152587890625,-1.373291015625,1.373291015625,3.4218499660491943
346.2742919921875,-0.5898838639259338,0.03242350369691849,-0.7569935917854309,-0.2791883647441864,151.0,-65.6690902709961,111.07926177978516,-0.7612305879592896,0.4379883408546448,-0.0776367262005806,-5.4931640625,5.340576171875,-41.19873046875,3.4218499660491943
346.3282775878906,-0.590549111366272,0.0401204451918602,-0.7563462853431702,-0.27853551506996155,152.0,-66.30094146728516,111.50467681884766,-1.2011719942092896,0.3701172173023224,-0.6074219346046448,-7.9345703125,-29.9072265625,96.893310546875,3.421750068664551
346.3816833496094,-0.6051856875419617,0.05679437518119812,-0.7444201707839966,-0.27633774280548096,150.0,-68.81425476074219,108.51734924316406,-1.3232423067092896,0.6132813096046448,-0.3828125596046448,-4.8828125,-54.168701171875,-1.678466796875,3.421750068664551
346.4360046386719,-0.6193904876708984,0.034273676574230194,-0.7291914224624634,-0.2888949513435364,141.0,-67.3852767944336,99.85125732421875,-1.1015626192092896,0.2270508110523224,-0.0292968787252903,-7.9345703125,-102.691650390625,88.958740234375,3.421649932861328
346.4897155761719,-0.6380228400230408,-0.005464662332087755,-0.7002667188644409,-0.3201925456523895,128.0,-62.88240051269531,87.58674621582031,-1.1250001192092896,0.6484375596046448,0.2885742485523224,-24.261474609375,-119.0185546875,61.6455078125,3.421649932861328
346.5430908203125,-0.6701287031173706,-0.02158959209918976,-0.6581220030784607,-0.3425423502922058,116.0,-60.14202880859375,74.52713012695312,-1.1479493379592896,0.2529297173023224,0.4482422471046448,-57.525634765625,-123.9013671875,45.013427734375,3.4215497970581055
346.5968933105469,-0.6909806132316589,-0.03811496123671532,-0.6176523566246033,-0.3736289143562317,108.0,-55.59760284423828,65.52191162109375,-0.8286134004592896,0.5126953721046448,0.6748047471046448,-71.10595703125,-133.36181640625,52.490234375,3.4215497970581055
346.6513366699219,-0.7240580916404724,-0.04670735448598862,-0.5576449036598206,-0.4032238721847534,99.0,-50.342002868652344,54.158042907714844,-0.6318359971046448,0.3637695610523224,0.7509766817092896,-90.179443359375,-144.500732421875,-15.716552734375,3.421449661254883
346.7049255371094,-0.7659264206886292,-0.03858713433146477,-0.48891904950141907,-0.41572293639183044,89.0,-45.79657745361328,41.90018844604492,-0.4511719346046448,0.1240234524011612,0.5053711533546448,-93.68896484375,-160.369873046875,-6.40869140625,3.421449661254883
346.7585144042969,-0.8033092617988586,-0.036835331469774246,-0.410441130399704,-0.42997047305107117,82.0,-38.884029388427734,31.968523025512695,-0.3725586235523224,0.1655273586511612,0.4130859971046448,-81.939697265625,-173.9501953125,13.12255859375,3.42134952545166
346.812255859375,-0.8323673009872437,-0.047354571521282196,-0.32559818029403687,-0.445990651845932,77.0,-29.9864501953125,25.234689712524414,-0.1728515774011612,0.1533203274011612,0.4462891221046448,-78.7353515625,-183.41064453125,22.88818359375,3.420748472213745
346.8653564453125,-0.8510927557945251,-0.05418439954519272,-0.2473789006471634,-0.4599006474018097,75.0,-21.792476654052734,20.14413070678711,-0.1108398586511612,0.1210937649011612,0.6083984971046448,-71.71630859375,-129.08935546875,39.97802734375,3.4205479621887207
346.91943359375,-0.854234516620636,-0.05659369379281998,-0.19322258234024048,-0.47931671142578125,75.0,-16.013402938842773,17.055587768554688,-0.0390625037252903,0.1049804836511612,1.1069337129592896,-30.517578125,-76.2939453125,33.721923828125,3.4199469089508057
346.97247314453125,-0.8616279363632202,-0.06064635142683983,-0.16604658961296082,-0.47576019167900085,74.0,-13.204923629760742,15.64256477355957,-0.0371093787252903,0.0312500037252903,1.1562501192092896,-28.38134765625,-37.994384765625,-27.4658203125,3.4196460247039795
347.0259094238281,-0.8652029633522034,-0.06110549345612526,-0.14424867928028107,-0.47632116079330444,73.0,-11.034327507019043,14.343507766723633,0.2529297173023224,0.3359375298023224,0.9858399629592896,-16.326904296875,-57.67822265625,-29.60205078125,3.419545888900757
347.0797119140625,-0.8778188824653625,-0.06685784459114075,-0.1297135204076767,-0.4562215805053711,70.0,-9.597515106201172,13.832295417785645,-0.3115234673023224,-0.3168945610523224,1.1245118379592896,6.866455078125,-17.08984375,-11.138916015625,3.418944835662842
347.133544921875,-0.8732666373252869,-0.06845325976610184,-0.12421531975269318,-0.4661436378955841,71.0,-8.808247566223145,13.778510093688965,0.1811523586511612,0.1416015774011612,0.9282227754592896,-3.35693359375,-4.730224609375,46.539306640625,3.4183437824249268
347.1862487792969,-0.8703025579452515,-0.07077573984861374,-0.11954142898321152,-0.4725193381309509,72.0,-8.116631507873535,13.801178932189941,0.1176757961511612,0.1157226711511612,0.9790040254592896,-0.457763671875,-16.632080078125,-7.32421875,3.4181432723999023
347.2394104003906,-0.8742146492004395,-0.0711204931139946,-0.10787101835012436,-0.468031644821167,71.0,-7.009364604949951,13.121698379516602,0.0751953199505806,-0.02246093936264515,1.0195313692092896,-2.593994140625,-16.937255859375,-11.138916015625,3.417942762374878
347.2928771972656,-0.8735806941986084,-0.07342702895402908,-0.10346656292676926,-0.46985140442848206,71.0,-6.417542457580566,13.116903305053711,0.0903320387005806,-0.0488281324505806,1.0087891817092896,-1.983642578125,-3.35693359375,20.599365234375,3.4177420139312744
347.3467712402344,-0.8690560460090637,-0.06968626379966736,-0.09444966912269592,-0.480588436126709,73.0,-5.5769944190979,12.293121337890625,0.1289062649011612,0.0761718824505806,0.9882813692092896,0.0,-7.32421875,14.801025390625,3.4171409606933594
347.3990478515625,-0.8674906492233276,-0.07050597667694092,-0.08892986178398132,-0.4843355417251587,73.0,-4.933217525482178,12.078131675720215,0.0976562649011612,0.0439453162252903,0.9985352754592896,-1.678466796875,-7.171630859375,7.171630859375,3.416940450668335
347.4523010253906,-0.8660141229629517,-0.06888022273778915,-0.08059521019458771,-0.48865076899528503,73.0,-4.144748687744141,11.454381942749023,0.0903320387005806,0.0585937574505806,0.9931641817092896,-1.220703125,-5.79833984375,6.103515625,3.4164395332336426
347.50469970703125,-0.8649445176124573,-0.06867950409650803,-0.0740906372666359,-0.4915940761566162,74.0,-3.476762056350708,11.069894790649414,0.0795898512005806,0.0839843824505806,0.9951173067092896,-0.762939453125,-4.8828125,0.457763671875,3.4161388874053955
347.5579528808594,-0.8650245666503906,-0.06927241384983063,-0.07025184482336044,-0.49193423986434937,74.0,-3.0601439476013184,10.908023834228516,0.0996093899011612,0.0541992262005806,0.9868165254592896,-0.30517578125,-3.0517578125,-0.762939453125,3.4155378341674805
347.6104736328125,-0.8651394844055176,-0.0686042383313179,-0.06491322815418243,-0.49255800247192383,74.0,-2.563974142074585,10.53490924835205,0.1127929836511612,0.0668945387005806,0.9858399629592896,0.0,-3.814697265625,-0.457763671875,3.415337085723877
347.663818359375,-0.8652615547180176,-0.06870917975902557,-0.06196177750825882,-0.49270933866500854,74.0,-2.2648606300354004,10.375686645507812,0.0932617262005806,0.0605468824505806,0.9931641817092896,-0.457763671875,-1.983642578125,-0.457763671875,3.4146358966827393
347.71624755859375,-0.8654646873474121,-0.06807161867618561,-0.058024149388074875,-0.4929202198982239,74.0,-1.9099047183990479,10.08604907989502,0.1035156399011612,0.0776367262005806,0.9809571504592896,0.30517578125,-1.373291015625,-1.983642578125,3.414435386657715
347.7693786621094,-0.8660356998443604,-0.06875336915254593,-0.05600259453058243,-0.4920562207698822,73.0,-1.6812678575515747,10.036385536193848,0.0976562649011612,0.0766601637005806,0.9995118379592896,0.762939453125,-1.983642578125,-4.2724609375,3.4139344692230225
347.8224792480469,-0.8668444752693176,-0.06844913214445114,-0.05312700569629669,-0.4909919500350952,73.0,-1.4262250661849976,9.839701652526855,0.1103515774011612,0.0605468824505806,0.9936524629592896,0.762939453125,-0.152587890625,-4.57763671875,3.4133334159851074
347.8748474121094,-0.8677423596382141,-0.06849126517772675,-0.051638465374708176,-0.4895564019680023,73.0,-1.2925360202789307,9.756922721862793,0.1196289211511612,0.0625000074505806,0.9877930879592896,0.91552734375,-0.91552734375,-3.662109375,3.4132332801818848
347.9275817871094,-0.8679435849189758,-0.06814504414796829,-0.04878019168972969,-0.48954129219055176,73.0,-1.0289314985275269,9.559906005859375,0.1020507961511612,0.0600586012005806,1.0034180879592896,0.457763671875,0.152587890625,-0.30517578125,3.4130327701568604
347.980712890625,-0.8675675988197327,-0.06782884150743484,-0.04665762931108475,-0.4904578626155853,73.0,-0.826400876045227,9.408737182617188,0.1098632961511612,0.0532226637005806,0.9848634004592896,1.068115234375,0.6103515625,0.30517578125,3.4124317169189453
348.0335998535156,-0.8673197031021118,-0.0676276832818985,-0.0457126684486866,-0.49101266264915466,73.0,-0.7381559610366821,9.335433959960938,0.1030273586511612,0.0610351637005806,0.9897462129592896,0.6103515625,0.762939453125,0.152587890625,3.4118306636810303
348.0858154296875,-0.8665876388549805,-0.0673026591539383,-0.04393849894404411,-0.4925096333026886,73.0,-0.5648713707923889,9.203143119812012,0.1010742336511612,0.0771484449505806,0.9916993379592896,0.762939453125,1.373291015625,0.91552734375,3.411530017852783
348.138916015625,-0.8661965727806091,-0.06743646413087845,-0.04377967119216919,-0.4931931495666504,73.0,-0.534302294254303,9.2078857421875,0.1005859524011612,0.0673828199505806,0.9926759004592896,1.373291015625,2.899169921875,1.8310546875,3.410928964614868
348.19122314453125,-0.865373969078064,-0.06680528819561005,-0.0431634746491909,-0.49477458000183105,74.0,-0.4926339089870453,9.110634803771973,0.0903320387005806,0.0649414137005806,0.9868165254592896,1.068115234375,3.662109375,1.220703125,3.410628080368042
348.24371337890625,-0.8646327257156372,-0.06677619367837906,-0.04392014443874359,-0.4960070550441742,74.0,-0.5561594367027283,9.151790618896484,0.0795898512005806,0.0825195387005806,0.9907227754592896,1.983642578125,2.288818359375,0.6103515625,3.4104275703430176
348.2961730957031,-0.8638532161712646,-0.06673620641231537,-0.04382956027984619,-0.497376024723053,74.0,-0.5350724458694458,9.143462181091309,0.0810546949505806,0.0834961012005806,0.9965821504592896,1.220703125,3.509521484375,-0.91552734375,3.410327434539795
348.34906005859375,-0.8636197447776794,-0.06656493246555328,-0.04452461004257202,-0.4977424442768097,74.0,-0.6096545457839966,9.166626930236816,0.0712890699505806,0.0932617262005806,0.9858399629592896,1.373291015625,3.204345703125,-4.57763671875,3.4101269245147705
348.4014587402344,-0.8641894459724426,-0.06642037630081177,-0.045313023030757904,-0.4967012107372284,74.0,-0.7068135738372803,9.196781158447266,0.0878906324505806,0.0620117262005806,0.9985352754592896,1.373291015625,2.44140625,-5.18798828125,3.409926176071167
348.4542541503906,-0.8650301694869995,-0.06567785143852234,-0.046040210872888565,-0.49526703357696533,74.0,-0.8363295793533325,9.163251876831055,0.0864257887005806,0.0551757887005806,0.9956055879592896,1.068115234375,3.204345703125,-1.068115234375,3.4098260402679443
348.50726318359375,-0.8645126223564148,-0.0647655725479126,-0.045847006142139435,-0.49630793929100037,74.0,-0.8585118055343628,9.062248229980469,0.0747070387005806,0.0620117262005806,0.9916993379592896,0.6103515625,2.899169921875,0.762939453125,3.4092249870300293
348.5601806640625,-0.8635514378547668,-0.06379643082618713,-0.04557808116078377,-0.49812808632850647,74.0,-0.8686630129814148,8.952078819274902,0.0493164137005806,0.0800781324505806,0.9946290254592896,0.762939453125,2.288818359375,1.220703125,3.408724069595337
348.61199951171875,-0.8630409836769104,-0.0636407881975174,-0.04658767208456993,-0.4989391565322876,74.0,-0.9688248634338379,8.995697021484375,0.0488281324505806,0.1044922024011612,0.9941407442092896,1.068115234375,2.593994140625,-0.152587890625,3.4085235595703125
348.6654052734375,-0.8626720905303955,-0.06348475068807602,-0.047285500913858414,-0.49953028559684753,74.0,-1.0404713153839111,9.021203994750977,0.0590820387005806,0.0844726637005806,0.9970704317092896,1.220703125,1.983642578125,-2.44140625,3.4079225063323975
348.7177429199219,-0.8626623749732971,-0.06348912417888641,-0.04831507429480553,-0.4994489252567291,74.0,-1.1425563097000122,9.08110523223877,0.0678711012005806,0.0654296949505806,0.9970704317092896,1.678466796875,3.35693359375,-1.373291015625,3.407721996307373
348.7709045410156,-0.8616872429847717,-0.06287232041358948,-0.04917048662900925,-0.5011232495307922,75.0,-1.2448832988739014,9.071721076965332,0.0747070387005806,0.0800781324505806,0.9916993379592896,2.44140625,4.730224609375,5.18798828125,3.4072210788726807
348.8230285644531,-0.8599405884742737,-0.06359728425741196,-0.05074049159884453,-0.5038681030273438,75.0,-1.3281395435333252,9.239165306091309,0.0512695387005806,0.0922851637005806,0.9868165254592896,1.983642578125,3.662109375,1.983642578125,3.407120943069458
348.8755798339844,-0.8587262034416199,-0.06359206885099411,-0.05111227557063103,-0.5058982372283936,75.0,-1.3431743383407593,9.263538360595703,0.0708007887005806,0.0776367262005806,0.9990235567092896,1.52587890625,2.288818359375,0.0,3.4069201946258545
348.92840576171875,-0.8582093119621277,-0.06321452558040619,-0.0515555702149868,-0.5067771077156067,75.0,-1.3992786407470703,9.253615379333496,0.0468750074505806,0.0722656324505806,0.9858399629592896,-0.152587890625,2.13623046875,2.593994140625,3.407421112060547
348.9815368652344,-0.8569964170455933,-0.0620315782725811,-0.0511244498193264,-0.5090142488479614,76.0,-1.4025704860687256,9.1149263381958,0.0507812574505806,0.0922851637005806,0.9931641817092896,-1.068115234375,0.762939453125,0.762939453125,3.4070208072662354
349.0338439941406,-0.8562155365943909,-0.06110512465238571,-0.05063275992870331,-0.5104875564575195,76.0,-1.3934733867645264,8.996801376342773,0.0332031287252903,0.0820312574505806,1.0004884004592896,-1.373291015625,0.762939453125,0.457763671875,3.407421112060547
349.08709716796875,-0.8557659387588501,-0.060281142592430115,-0.05045831575989723,-0.511355996131897,76.0,-1.4159667491912842,8.906627655029297,0.0424804724752903,0.0825195387005806,0.9946290254592896,-0.762939453125,0.152587890625,-1.220703125,3.4070208072662354
349.1394348144531,-0.8554874658584595,-0.060090549290180206,-0.04978138580918312,-0.5119102597236633,76.0,-1.3553301095962524,8.848578453063965,0.0454101599752903,0.0869140699505806,0.9926759004592896,0.0,-0.152587890625,-1.068115234375,3.4069201946258545
349.1926574707031,-0.8553672432899475,-0.0598522387444973,-0.04968797788023949,-0.5121482014656067,76.0,-1.3578368425369263,8.819928169250488,0.0400390662252903,0.0844726637005806,0.9882813692092896,-0.152587890625,0.0,-0.152587890625,3.4069201946258545
349.2450866699219,-0.8546581268310547,-0.05966329574584961,-0.04907381907105446,-0.513411819934845,76.0,-1.2960832118988037,8.766764640808105,0.0541992262005806,0.0659179762005806,1.0004884004592896,0.30517578125,-0.762939453125,-1.068115234375,3.407320737838745
349.2983703613281,-0.8542245626449585,-0.059529028832912445,-0.048571571707725525,-0.5141962766647339,76.0,-1.2470176219940186,8.724810600280762,0.0576171949505806,0.0883789137005806,0.9956055879592896,0.762939453125,-0.457763671875,3.35693359375,3.4069201946258545
349.35064697265625,-0.852804958820343,-0.06022167578339577,-0.047961264848709106,-0.5165238380432129,77.0,-1.1225732564926147,8.759668350219727,0.0336914099752903,0.0791015699505806,0.9916993379592896,0.762939453125,-1.068115234375,1.678466796875,3.4069201946258545
349.4038391113281,-0.8517159223556519,-0.060536228120326996,-0.04764378443360329,-0.5183106660842896,77.0,-1.0545762777328491,8.773784637451172,0.0463867224752903,0.0908203199505806,0.9941407442092896,0.762939453125,-0.30517578125,5.4931640625,3.406519889831543
349.4559020996094,-0.8494922518730164,-0.06109945476055145,-0.04745608568191528,-0.5218983888626099,77.0,-0.9655792117118835,8.821884155273438,0.0473632887005806,0.0986328274011612,0.9887696504592896,0.6103515625,1.068115234375,6.7138671875,3.4069201946258545
349.5090026855469,-0.8478773236274719,-0.06177620217204094,-0.04730198532342911,-0.5244532823562622,78.0,-0.8832553029060364,8.881468772888184,0.0434570349752903,0.0893554762005806,0.9956055879592896,0.457763671875,-0.30517578125,1.983642578125,3.4066200256347656
349.5619201660156,-0.8464284539222717,-0.06167967617511749,-0.0475839264690876,-0.5267736315727234,78.0,-0.8921501040458679,8.891595840454102,0.0703125074505806,0.1157226711511612,0.9760743379592896,1.068115234375,2.74658203125,6.103515625,3.406519889831543
349.61419677734375,-0.8453388810157776,-0.06164964661002159,-0.04730997234582901,-0.5285483002662659,78.0,-0.8489416241645813,8.87375545501709,0.0415039099752903,0.0717773512005806,1.0131837129592896,-0.91552734375,-3.35693359375,-4.2724609375,3.406519889831543
349.6670227050781,-0.8445519208908081,-0.06224231794476509,-0.0468333475291729,-0.5297779440879822,78.0,-0.753872275352478,8.903438568115234,0.0590820387005806,0.0874023512005806,0.9931641817092896,-0.30517578125,1.220703125,0.0,3.4070208072662354
349.7200927734375,-0.8433890342712402,-0.06231396645307541,-0.0464530773460865,-0.5316522717475891,79.0,-0.6931419372558594,8.88866138458252,0.01855468936264515,0.0546875074505806,1.0312501192092896,-0.30517578125,-1.373291015625,-2.74658203125,3.4067203998565674
349.7727355957031,-0.8428084850311279,-0.06217707693576813,-0.04596879705786705,-0.5326303839683533,79.0,-0.6446477174758911,8.846346855163574,0.0747070387005806,0.0834961012005806,0.9863282442092896,0.0,1.220703125,0.762939453125,3.407120943069458
349.82537841796875,-0.8412995934486389,-0.06224709004163742,-0.04578302055597305,-0.5350181460380554,79.0,-0.5974811911582947,8.843421936035156,0.0444335974752903,0.0727539137005806,1.0063477754592896,0.0,-0.152587890625,2.44140625,3.407120943069458
349.8782653808594,-0.8403234481811523,-0.061797626316547394,-0.04537474736571312,-0.536637008190155,79.0,-0.5691365599632263,8.775714874267578,0.0571289137005806,0.0869140699505806,0.9892579317092896,-0.30517578125,0.457763671875,2.74658203125,3.407421112060547
349.9310607910156,-0.8387569785118103,-0.061815593391656876,-0.04499423876404762,-0.539111316204071,80.0,-0.5057846307754517,8.75538444519043,0.0605468824505806,0.0810546949505806,0.9960938692092896,-0.30517578125,-0.6103515625,1.220703125,3.4078216552734375
349.9840393066406,-0.8379969596862793,-0.06166436895728111,-0.04439813271164894,-0.5403587818145752,80.0,-0.44514840841293335,8.704327583312988,0.0502929762005806,0.0854492262005806,1.0000001192092896,-0.762939453125,-0.30517578125,-0.91552734375,3.4077212810516357
350.0372009277344,-0.8370600938796997,-0.061196912080049515,-0.04396957904100418,-0.5418967008590698,80.0,-0.4174349904060364,8.633238792419434,0.0537109449505806,0.0825195387005806,0.9892579317092896,-0.91552734375,-0.30517578125,1.8310546875,3.4078216552734375
350.0896911621094,-0.8358211517333984,-0.06084592640399933,-0.04330402612686157,-0.5438984632492065,80.0,-0.3552835285663605,8.558634757995605,0.0625000074505806,0.0893554762005806,0.9921876192092896,-1.52587890625,-0.6103515625,-0.457763671875,3.4081220626831055
350.1424560546875,-0.8355899453163147,-0.06063211336731911,-0.04270557686686516,-0.5443248748779297,80.0,-0.3071964979171753,8.500653266906738,0.0522461012005806,0.0932617262005806,0.9946290254592896,-0.6103515625,-0.6103515625,-1.220703125,3.408522367477417
350.1954040527344,-0.8354209065437317,-0.060638677328825,-0.04247599095106125,-0.5446017980575562,80.0,-0.2820567786693573,8.486963272094727,0.0522461012005806,0.0932617262005806,0.9970704317092896,-0.30517578125,-0.6103515625,-2.13623046875,3.408522367477417
350.2481689453125,-0.8345106244087219,-0.0606922022998333,-0.042471449822187424,-0.5459896326065063,80.0,-0.26419904828071594,8.492276191711426,0.0498046949505806,0.0795898512005806,0.9970704317092896,-0.457763671875,0.0,-0.6103515625,3.4090232849121094
350.30133056640625,-0.8336679339408875,-0.060502611100673676,-0.042404673993587494,-0.5473016500473022,81.0,-0.2564842700958252,8.470254898071289,0.0620117262005806,0.0878906324505806,0.9956055879592896,0.0,-0.30517578125,-1.068115234375,3.4090232849121094
350.353515625,-0.8333209753036499,-0.06051385775208473,-0.04212649539113045,-0.5478498339653015,81.0,-0.22372768819332123,8.453927040100098,0.0507812574505806,0.0678711012005806,0.9936524629592896,-0.152587890625,0.457763671875,-0.30517578125,3.4090232849121094
350.40692138671875,-0.8322505950927734,-0.059820469468832016,-0.041930947452783585,-0.5495654940605164,81.0,-0.23168064653873444,8.375502586364746,0.0625000074505806,0.0820312574505806,0.9926759004592896,-0.6103515625,0.6103515625,0.0,3.408522367477417
350.4593200683594,-0.8315925002098083,-0.05968726426362991,-0.041973356157541275,-0.5505720973014832,81.0,-0.234063982963562,8.365706443786621,0.0644531324505806,0.0815429762005806,0.9956055879592896,-0.30517578125,-0.152587890625,-0.91552734375,3.408522367477417
350.51251220703125,-0.830549418926239,-0.059676386415958405,-0.04170805215835571,-0.5521655678749084,81.0,-0.1935858577489853,8.348206520080566,0.0478515699505806,0.0751953199505806,0.9970704317092896,0.0,0.457763671875,-0.152587890625,3.408522367477417
350.5649108886719,-0.8296079039573669,-0.05937262624502182,-0.042140912264585495,-0.5535793900489807,81.0,-0.2398376762866974,8.34711742401123,0.0473632887005806,0.0761718824505806,0.9960938692092896,0.152587890625,1.220703125,1.8310546875,3.4084219932556152
350.6173400878906,-0.8278332948684692,-0.05903492122888565,-0.04254200682044029,-0.5562349557876587,82.0,-0.2727753221988678,8.341360092163086,0.0561523512005806,0.0810546949505806,0.9926759004592896,0.0,0.457763671875,1.373291015625,3.408722400665283
350.67047119140625,-0.8263052105903625,-0.05892637372016907,-0.04251882806420326,-0.5585154891014099,82.0,-0.254650354385376,8.330249786376953,0.0532226637005806,0.0805664137005806,0.9956055879592896,-0.152587890625,0.152587890625,0.0,3.4088222980499268
350.7227478027344,-0.8256373405456543,-0.05887236446142197,-0.04255640134215355,-0.5595051050186157,82.0,-0.2517316937446594,8.327834129333496,0.0556640699505806,0.0795898512005806,0.9951173067092896,0.0,0.0,0.0,3.4088222980499268
350.7755432128906,-0.8248205184936523,-0.058731961995363235,-0.042664121836423874,-0.5607152581214905,82.0,-0.2587869465351105,8.321815490722656,0.0527343824505806,0.0791015699505806,0.9946290254592896,0.0,0.457763671875,0.6103515625,3.4093234539031982
350.82806396484375,-0.823214054107666,-0.05845645070075989,-0.0428275465965271,-0.5630872845649719,83.0,-0.2681627571582794,8.307007789611816,0.0502929762005806,0.0834961012005806,0.9936524629592896,0.152587890625,0.6103515625,0.457763671875,3.4093234539031982
350.880615234375,-0.8216405510902405,-0.058304108679294586,-0.043155767023563385,-0.5653716325759888,83.0,-0.2859116196632385,8.314692497253418,0.0493164137005806,0.0795898512005806,0.9921876192092896,0.0,0.6103515625,0.0,3.409623622894287
350.93359375,-0.8209347128868103,-0.0581011027097702,-0.043338995426893234,-0.5664029121398926,83.0,-0.3059439957141876,8.30781364440918,0.0473632887005806,0.0791015699505806,0.9951173067092896,0.0,0.457763671875,0.30517578125,3.4095232486724854
350.9859619140625,-0.8194493055343628,-0.05777621641755104,-0.043620798736810684,-0.568561315536499,84.0,-0.3318256735801697,8.296396255493164,0.0468750074505806,0.0786132887005806,0.9921876192092896,0.0,0.152587890625,0.30517578125,3.4095232486724854
351.0390319824219,-0.8186805248260498,-0.0575900636613369,-0.04365059733390808,-0.5696843862533569,84.0,-0.3354956805706024,8.28124713897705,0.0463867224752903,0.0795898512005806,0.9902344942092896,-0.152587890625,0.0,0.0,3.409022331237793
351.09136962890625,-0.8173172473907471,-0.05770518630743027,-0.043617911636829376,-0.571629524230957,84.0,-0.3052370548248291,8.290694236755371,0.0488281324505806,0.0717773512005806,0.9965821504592896,0.152587890625,0.0,0.152587890625,3.4095232486724854
351.14422607421875,-0.8152555823326111,-0.05745609477162361,-0.043826665729284286,-0.574574887752533,84.0,-0.3113586902618408,8.282174110412598,0.0449218787252903,0.0732421949505806,0.9931641817092896,0.0,0.30517578125,2.74658203125,3.4095232486724854
351.1966857910156,-0.8138685822486877,-0.05745589733123779,-0.043766967952251434,-0.5765426158905029,85.0,-0.2858825922012329,8.278907775878906,0.0498046949505806,0.0917968824505806,0.9897462129592896,-0.30517578125,-0.30517578125,2.13623046875,3.409923553466797
351.24945068359375,-0.8126204013824463,-0.05786708742380142,-0.04362507164478302,-0.578270435333252,85.0,-0.22778527438640594,8.308513641357422,0.0395507849752903,0.0830078199505806,0.9985352754592896,0.152587890625,-0.457763671875,1.373291015625,3.409923553466797
351.302734375,-0.8105707764625549,-0.05793303623795509,-0.04394342750310898,-0.5811091065406799,85.0,-0.22389459609985352,8.336734771728516,0.0478515699505806,0.0830078199505806,0.9931641817092896,0.0,-0.152587890625,1.068115234375,3.409823417663574
351.3550109863281,-0.8086733222007751,-0.0580422468483448,-0.04381965473294258,-0.5837452411651611,86.0,-0.17806416749954224,8.33925724029541,0.0546875074505806,0.0766601637005806,0.9931641817092896,0.0,-0.762939453125,1.52587890625,3.409823417663574
351.4079284667969,-0.8076010942459106,-0.05828386917710304,-0.043479304760694504,-0.585229218006134,86.0,-0.11510840058326721,8.339085578918457,0.0537109449505806,0.0766601637005806,0.9956055879592896,0.0,-1.220703125,0.91552734375,3.410223960876465
351.4610900878906,-0.8055794835090637,-0.05840722844004631,-0.04314349219202995,-0.5880212783813477,86.0,-0.04707665741443634,8.328125953674316,0.0527343824505806,0.0771484449505806,0.9936524629592896,0.0,-0.30517578125,1.52587890625,3.410223960876465
351.5134582519531,-0.8043563961982727,-0.05857980623841286,-0.04284561052918434,-0.5896979570388794,87.0,0.009310828521847725,8.323960304260254,0.0522461012005806,0.0795898512005806,0.9956055879592896,0.0,-0.762939453125,0.457763671875,3.410223960876465
351.5655822753906,-0.8027940988540649,-0.058908820152282715,-0.04243873432278633,-0.591819703578949,87.0,0.09096705913543701,8.3266019821167,0.0551757887005806,0.0800781324505806,0.9941407442092896,-0.152587890625,-0.762939453125,-0.152587890625,3.410223960876465
351.6191101074219,-0.8019812703132629,-0.0591089092195034,-0.04199330136179924,-0.5929324626922607,87.0,0.15696178376674652,8.314544677734375,0.0605468824505806,0.0761718824505806,0.9956055879592896,-0.152587890625,-0.762939453125,0.30517578125,3.410123825073242
351.67144775390625,-0.8002161979675293,-0.05910766124725342,-0.04174936190247536,-0.5953295826911926,87.0,0.2039763480424881,8.297208786010742,0.0561523512005806,0.0810546949505806,0.9951173067092896,-0.152587890625,-0.457763671875,0.0,3.410524368286133
351.72442626953125,-0.7992753386497498,-0.05925631523132324,-0.04157315567135811,-0.5965898036956787,88.0,0.2433146983385086,8.298468589782715,0.0615234449505806,0.0776367262005806,0.9931641817092896,-0.152587890625,-0.30517578125,0.30517578125,3.410524368286133
351.7772216796875,-0.7972590923309326,-0.05932057648897171,-0.0413358211517334,-0.5992916226387024,88.0,0.2973625957965851,8.287138938903809,0.0625000074505806,0.0761718824505806,0.9946290254592896,-0.30517578125,-0.152587890625,0.457763671875,3.410423755645752
351.82989501953125,-0.7951138615608215,-0.059256695210933685,-0.0411553680896759,-0.6021534204483032,88.0,0.3390115797519684,8.267672538757324,0.0581054762005806,0.0776367262005806,0.9975587129592896,0.0,-0.152587890625,1.068115234375,3.4103236198425293
351.88189697265625,-0.7939984798431396,-0.05937547609210014,-0.04112568870186806,-0.6036139130592346,89.0,0.3651059567928314,8.275847434997559,0.0576171949505806,0.0791015699505806,0.9980469942092896,0.0,0.0,0.91552734375,3.4103236198425293
351.9346923828125,-0.7917932271957397,-0.05942228063941002,-0.041332416236400604,-0.6064850687980652,89.0,0.3795299232006073,8.293183326721191,0.0615234449505806,0.0776367262005806,0.9960938692092896,0.0,0.0,0.152587890625,3.4103236198425293
351.98736572265625,-0.7906479835510254,-0.059387922286987305,-0.04136178642511368,-0.6079787611961365,89.0,0.39007043838500977,8.291382789611816,0.0668945387005806,0.0756836012005806,0.9916993379592896,-0.152587890625,0.0,0.6103515625,3.4099233150482178
352.0399169921875,-0.7885141372680664,-0.059559982270002365,-0.04130158573389053,-0.6107308268547058,90.0,0.43639567494392395,8.30139446258545,0.0625000074505806,0.0800781324505806,0.9936524629592896,0.0,0.0,0.6103515625,3.4099233150482178
352.09228515625,-0.7872848510742188,-0.05954074114561081,-0.04148528724908829,-0.6123042702674866,90.0,0.4350295960903168,8.311710357666016,0.0585937574505806,0.0810546949505806,0.9956055879592896,0.0,0.457763671875,0.152587890625,3.4099233150482178
352.14495849609375,-0.7851414680480957,-0.05952693521976471,-0.04189089685678482,-0.6150240302085876,90.0,0.42630934715270996,8.337623596191406,0.0541992262005806,0.0815429762005806,0.9956055879592896,0.0,0.30517578125,-0.152587890625,3.409822702407837
352.19744873046875,-0.7841719388961792,-0.05960198864340782,-0.04234166070818901,-0.6162217259407043,90.0,0.40392664074897766,8.375716209411621,0.0571289137005806,0.0761718824505806,0.9936524629592896,0.0,0.152587890625,-0.457763671875,3.409822702407837
352.25054931640625,-0.7822499871253967,-0.05942171439528465,-0.0425419844686985,-0.6186633706092834,91.0,0.39919108152389526,8.3724365234375,0.0561523512005806,0.0756836012005806,0.9941407442092896,0.0,0.0,-0.762939453125,3.4094223976135254
352.3027648925781,-0.7812663912773132,-0.0592096671462059,-0.04269398748874664,-0.6199148893356323,91.0,0.383836030960083,8.363544464111328,0.0571289137005806,0.0805664137005806,0.9960938692092896,-0.30517578125,0.30517578125,-0.30517578125,3.409522771835327
352.3553771972656,-0.7792507410049438,-0.059126850217580795,-0.04299139976501465,-0.6224339604377747,91.0,0.37832435965538025,8.376141548156738,0.0576171949505806,0.0727539137005806,0.9956055879592896,0.0,0.152587890625,0.0,3.4094223976135254
352.4079284667969,-0.7779753804206848,-0.05909639224410057,-0.043148305267095566,-0.6240194439888,91.0,0.37918370962142944,8.38389778137207,0.0537109449505806,0.0795898512005806,0.9951173067092896,-0.30517578125,0.0,0.0,3.4094223976135254
352.4604797363281,-0.7756680250167847,-0.05898427590727806,-0.04345902428030968,-0.6268743276596069,92.0,0.3742530643939972,8.394856452941895,0.0541992262005806,0.0839843824505806,0.9926759004592896,0.152587890625,0.30517578125,0.457763671875,3.4094223976135254
352.5134582519531,-0.7733715772628784,-0.0590318962931633,-0.043749600648880005,-0.6296805143356323,92.0,0.3823418915271759,8.418763160705566,0.0532226637005806,0.0830078199505806,0.9960938692092896,0.0,0.0,0.0,3.409522533416748
352.5662536621094,-0.7722275257110596,-0.059022415429353714,-0.04394175857305527,-0.6310707330703735,93.0,0.37979161739349365,8.431181907653809,0.0561523512005806,0.0776367262005806,0.9946290254592896,0.0,0.152587890625,-0.30517578125,3.409522533416748
352.6182861328125,-0.7700996994972229,-0.05893208459019661,-0.04403756558895111,-0.6336672306060791,93.0,0.3930540084838867,8.428837776184082,0.0522461012005806,0.0756836012005806,0.9960938692092896,0.0,0.30517578125,0.0,3.409522533416748
352.6712341308594,-0.768889307975769,-0.05870509147644043,-0.04418400302529335,-0.6351462602615356,93.0,0.3797262907028198,8.418663024902344,0.0532226637005806,0.0717773512005806,0.9946290254592896,0.0,0.457763671875,0.152587890625,3.4091219902038574
352.723388671875,-0.7665178179740906,-0.05849383771419525,-0.04435983672738075,-0.6380135416984558,94.0,0.3801322877407074,8.411447525024414,0.0527343824505806,0.0786132887005806,0.9960938692092896,0.0,0.30517578125,0.91552734375,3.4092226028442383
352.7762756347656,-0.7649059891700745,-0.0583704337477684,-0.04460101202130318,-0.639939546585083,94.0,0.3710462152957916,8.417359352111816,0.0493164137005806,0.0732421949505806,0.9926759004592896,0.0,0.457763671875,1.8310546875,3.409522771835327
352.82855224609375,-0.7619662880897522,-0.058052387088537216,-0.044732969254255295,-0.6434565782546997,94.0,0.37462276220321655,8.397420883178711,0.0546875074505806,0.0878906324505806,0.9926759004592896,-0.30517578125,0.0,1.52587890625,3.409522771835327
352.881591796875,-0.7604692578315735,-0.05827837064862251,-0.04488429054617882,-0.6451941728591919,95.0,0.3973771929740906,8.427597999572754,0.0483398512005806,0.0849609449505806,0.9936524629592896,0.152587890625,-0.152587890625,0.457763671875,3.4090218544006348
352.9342041015625,-0.7579153776168823,-0.05856272578239441,-0.04532730206847191,-0.6481360197067261,95.0,0.41280269622802734,8.48390007019043,0.0473632887005806,0.0834961012005806,0.9902344942092896,0.457763671875,-0.30517578125,0.0,3.4090218544006348
352.9869384765625,-0.7556987404823303,-0.05904771387577057,-0.04549051448702812,-0.6506638526916504,95.0,0.46330875158309937,8.536966323852539,0.0502929762005806,0.0722656324505806,0.9936524629592896,0.0,-0.30517578125,-1.373291015625,3.4086215496063232
353.0391540527344,-0.754358172416687,-0.059172727167606354,-0.045538272708654404,-0.6522029638290405,96.0,0.4859268367290497,8.550472259521484,0.0566406324505806,0.0698242262005806,0.9990235567092896,-0.152587890625,-0.30517578125,0.0,3.4086215496063232
353.092041015625,-0.751437783241272,-0.05908224359154701,-0.045549873262643814,-0.6555728316307068,96.0,0.5162211656570435,8.54127311706543,0.0546875074505806,0.0727539137005806,0.9965821504592896,0.0,0.0,1.678466796875,3.4083211421966553
353.1445007324219,-0.7496415972709656,-0.05917113274335861,-0.04561189189553261,-0.6576138138771057,97.0,0.5407865643501282,8.552229881286621,0.0498046949505806,0.0864257887005806,0.9941407442092896,0.152587890625,-0.457763671875,1.220703125,3.408721446990967
353.19696044921875,-0.7466498017311096,-0.059291813522577286,-0.045750368386507034,-0.6609883308410645,97.0,0.5765993595123291,8.570652961730957,0.0551757887005806,0.0810546949505806,0.9946290254592896,0.0,0.0,0.762939453125,3.408621072769165
353.24993896484375,-0.7452455759048462,-0.05932125449180603,-0.04569537937641144,-0.6625723242759705,97.0,0.6016559600830078,8.56776237487793,0.0571289137005806,0.0825195387005806,0.9907227754592896,0.0,-0.152587890625,0.6103515625,3.4082205295562744
353.3023986816406,-0.7422447800636292,-0.05948542430996895,-0.04591070115566254,-0.6659027338027954,98.0,0.6342233419418335,8.595561981201172,0.0541992262005806,0.0781250074505806,0.9951173067092896,0.152587890625,-0.30517578125,0.30517578125,3.4082205295562744
353.35467529296875,-0.7407754063606262,-0.059557825326919556,-0.045831650495529175,-0.6675359606742859,98.0,0.6653372645378113,8.594274520874023,0.0581054762005806,0.0786132887005806,0.9951173067092896,0.0,-0.30517578125,0.6103515625,3.4082205295562744
353.4073486328125,-0.737690269947052,-0.05961444601416588,-0.045835815370082855,-0.6709384322166443,99.0,0.70876544713974,8.596297264099121,0.0561523512005806,0.0805664137005806,0.9946290254592896,0.152587890625,-0.152587890625,1.220703125,3.408721446990967
353.4604187011719,-0.7358201742172241,-0.059673357754945755,-0.045921750366687775,-0.6729778051376343,99.0,0.7298186421394348,8.605977058410645,0.0576171949505806,0.0800781324505806,0.9975587129592896,0.0,-0.152587890625,0.6103515625,3.4083211421966553
353.5127258300781,-0.7324243187904358,-0.05980508774518967,-0.045954737812280655,-0.6766582131385803,99.0,0.7803053855895996,8.615947723388672,0.0595703199505806,0.0712890699505806,0.9941407442092896,0.0,0.0,1.678466796875,3.408421516418457
353.5654296875,-0.7303968071937561,-0.059702318161726,-0.045868586748838425,-0.6788613796234131,100.0,0.8052989840507507,8.598198890686035,0.0620117262005806,0.0830078199505806,0.9946290254592896,-0.30517578125,0.0,1.373291015625,3.408421516418457
353.6179504394531,-0.7269611358642578,-0.05984988063573837,-0.04594205692410469,-0.6825209259986877,100.0,0.8538197875022888,8.612237930297852,0.0517578199505806,0.0888671949505806,0.9926759004592896,-0.152587890625,-0.152587890625,0.6103515625,3.4088220596313477
353.6712646484375,-0.7241972088813782,-0.059883929789066315,-0.046240683645009995,-0.6854299902915955,101.0,0.8662154078483582,8.635167121887207,0.0546875074505806,0.0864257887005806,0.9951173067092896,0.0,-0.152587890625,-1.52587890625,3.408421516418457
353.723388671875,-0.7230963110923767,-0.05987013876438141,-0.04628899320960045,-0.6865893602371216,101.0,0.8749176263809204,8.636445999145508,0.0595703199505806,0.0751953199505806,0.9965821504592896,0.0,-0.152587890625,-1.678466796875,3.4088220596313477
353.77679443359375,-0.7203405499458313,-0.05990329012274742,-0.046283893287181854,-0.6894773244857788,101.0,0.9123934507369995,8.635268211364746,0.0566406324505806,0.0693359449505806,0.9980469942092896,0.0,-0.152587890625,-0.152587890625,3.408421516418457
353.8292236328125,-0.7187255620956421,-0.059805728495121,-0.04632600024342537,-0.6911662220954895,102.0,0.9213579893112183,8.62838363647461,0.0581054762005806,0.0751953199505806,0.9946290254592896,0.0,0.30517578125,0.457763671875,3.408522129058838
353.8820495605469,-0.7153395414352417,-0.059677135199308395,-0.04651176929473877,-0.6946687698364258,102.0,0.9378746747970581,8.628055572509766,0.0581054762005806,0.0795898512005806,0.9941407442092896,0.0,0.152587890625,0.91552734375,3.408522129058838
353.9344177246094,-0.7137327194213867,-0.059670258313417435,-0.04662734270095825,-0.696312427520752,103.0,0.9476790428161621,8.634584426879883,0.0600586012005806,0.0864257887005806,0.9936524629592896,0.152587890625,0.0,-0.152587890625,3.4089224338531494
353.98748779296875,-0.7103615403175354,-0.0597984753549099,-0.04700697585940361,-0.6997149586677551,103.0,0.9683377146720886,8.671063423156738,0.0571289137005806,0.0766601637005806,0.9951173067092896,0.152587890625,0.152587890625,0.30517578125,3.408522129058838
354.0395202636719,-0.7086945176124573,-0.05966563895344734,-0.04718649387359619,-0.7014025449752808,103.0,0.9636254906654358,8.672375679016113,0.0605468824505806,0.0800781324505806,0.9951173067092896,0.152587890625,0.152587890625,0.762939453125,3.4086225032806396
354.0926513671875,-0.7050745487213135,-0.05970471724867821,-0.04734482243657112,-0.7050275206565857,104.0,0.9983535408973694,8.683390617370605,0.0566406324505806,0.0844726637005806,0.9931641817092896,0.152587890625,0.152587890625,0.457763671875,3.4090230464935303
354.1450500488281,-0.7015852928161621,-0.05976903811097145,-0.04771706834435463,-0.7084693908691406,105.0,1.016129732131958,8.713988304138184,0.0556640699505806,0.0800781324505806,0.9990235567092896,0.457763671875,0.152587890625,1.068115234375,3.4090230464935303
354.1981506347656,-0.699469268321991,-0.0597405768930912,-0.048051055520772934,-0.7105385065078735,105.0,1.0127836465835571,8.735969543457031,0.0537109449505806,0.0839843824505806,0.9902344942092896,0.30517578125,0.152587890625,0.6103515625,3.4086225032806396
354.25030517578125,-0.6957927942276001,-0.05981384962797165,-0.04840383306145668,-0.7141091227531433,105.0,1.0353426933288574,8.765583038330078,0.0605468824505806,0.0800781324505806,0.9956055879592896,0.762939453125,0.0,1.220703125,3.4086225032806396
354.30279541015625,-0.6935703158378601,-0.05992569401860237,-0.048563383519649506,-0.7162479162216187,106.0,1.0588326454162598,8.784485816955566,0.0600586012005806,0.0727539137005806,0.9907227754592896,0.30517578125,0.152587890625,2.593994140625,3.4087231159210205
354.3553771972656,-0.6891942620277405,-0.059937313199043274,-0.04862542450428009,-0.7204542756080627,107.0,1.1081383228302002,8.784022331237793,0.0600586012005806,0.0805664137005806,0.9956055879592896,0.457763671875,0.0,3.204345703125,3.409123420715332
354.40850830078125,-0.6860225200653076,-0.060174278914928436,-0.048787496984004974,-0.7234452366828918,107.0,1.1532669067382812,8.811423301696777,0.0566406324505806,0.0791015699505806,1.0000001192092896,0.152587890625,0.457763671875,3.0517578125,3.4086225032806396
354.46087646484375,-0.6812726259231567,-0.05993666872382164,-0.04920585826039314,-0.7279109954833984,108.0,1.1581357717514038,8.820107460021973,0.0517578199505806,0.0922851637005806,0.9931641817092896,0.762939453125,0.762939453125,4.2724609375,3.4086225032806396
354.513916015625,-0.678437352180481,-0.06003839522600174,-0.049700915813446045,-0.730512797832489,108.0,1.1620216369628906,8.865208625793457,0.0576171949505806,0.0878906324505806,0.9907227754592896,0.30517578125,0.91552734375,2.74658203125,3.408222198486328
354.5661315917969,-0.6739558577537537,-0.060125887393951416,-0.05051528289914131,-0.7345860004425049,109.0,1.1600396633148193,8.933723449707031,0.0502929762005806,0.0922851637005806,0.9965821504592896,1.068115234375,0.91552734375,2.288818359375,3.408222198486328
354.6189270019531,-0.6695936918258667,-0.060033395886421204,-0.05151223763823509,-0.738503098487854,110.0,1.1279492378234863,9.004392623901367,0.0483398512005806,0.0883789137005806,0.9907227754592896,1.068115234375,1.52587890625,1.8310546875,3.408522367477417
354.6712951660156,-0.6670869588851929,-0.06018778309226036,-0.05248897150158882,-0.7406872510910034,110.0,1.096205472946167,9.095800399780273,0.0541992262005806,0.0874023512005806,0.9985352754592896,1.373291015625,1.068115234375,0.6103515625,3.408522367477417
354.724365234375,-0.6649037599563599,-0.06018427014350891,-0.053297318518161774,-0.7425904273986816,110.0,1.0605682134628296,9.161444664001465,0.0502929762005806,0.0864257887005806,0.9990235567092896,1.220703125,0.91552734375,-0.152587890625,3.4081220626831055
354.7767028808594,-0.6607958674430847,-0.06000884249806404,-0.05417095869779587,-0.7461993098258972,111.0,1.0293866395950317,9.217209815979004,0.0527343824505806,0.0717773512005806,0.9970704317092896,0.762939453125,1.373291015625,0.762939453125,3.408522367477417
354.8294677734375,-0.6562492251396179,-0.05964745953679085,-0.054722730070352554,-0.7501897811889648,112.0,1.012487769126892,9.231106758117676,0.0498046949505806,0.0844726637005806,0.9956055879592896,0.762939453125,1.678466796875,3.96728515625,3.4084219932556152
354.8816833496094,-0.6525864601135254,-0.059366799890995026,-0.05549889802932739,-0.7533434629440308,112.0,0.9747350811958313,9.272300720214844,0.0434570349752903,0.0888671949505806,0.9926759004592896,0.91552734375,1.983642578125,4.8828125,3.4084219932556152
354.935546875,-0.646695613861084,-0.05901540443301201,-0.05633281171321869,-0.75837242603302,113.0,0.9540729522705078,9.311095237731934,0.0527343824505806,0.0937500149011612,0.9887696504592896,0.30517578125,1.373291015625,4.8828125,3.4080214500427246
354.9873352050781,-0.6437811255455017,-0.05904734879732132,-0.05663590133190155,-0.7608231902122498,113.0,0.9698879718780518,9.336365699768066,0.0439453162252903,0.1054687649011612,0.9921876192092896,-0.152587890625,0.152587890625,1.373291015625,3.4084219932556152
355.03997802734375,-0.6394517421722412,-0.059103794395923615,-0.057329244911670685,-0.7644094228744507,114.0,0.9763916730880737,9.396039009094238,0.0449218787252903,0.0986328274011612,0.9926759004592896,0.0,0.0,-0.762939453125,3.4084219932556152
355.0931396484375,-0.6377640962600708,-0.05895161256194115,-0.0576261430978775,-0.7658073902130127,114.0,0.9618920683860779,9.408859252929688,0.0468750074505806,0.0830078199505806,0.9980469942092896,-0.152587890625,0.762939453125,0.152587890625,3.4084219932556152
355.1454772949219,-0.633682131767273,-0.05823874846100807,-0.057719651609659195,-0.7692357897758484,115.0,0.9423763751983643,9.359684944152832,0.0483398512005806,0.0888671949505806,0.9931641817092896,-0.30517578125,0.762939453125,0.152587890625,3.4084219932556152
355.1981201171875,-0.6296210885047913,-0.05787944421172142,-0.05787165090441704,-0.7725788354873657,116.0,0.9487720131874084,9.342008590698242,0.0468750074505806,0.0908203199505806,0.9960938692092896,-0.30517578125,0.457763671875,0.0,3.408722400665283
355.25091552734375,-0.6274314522743225,-0.0575534850358963,-0.05815991386771202,-0.7743609547615051,116.0,0.9254600405693054,9.341375350952148,0.0400390662252903,0.0839843824505806,0.9921876192092896,-0.30517578125,0.762939453125,0.457763671875,3.408722400665283
355.3035888671875,-0.6232399344444275,-0.0569637157022953,-0.05834560841321945,-0.7777678370475769,117.0,0.9100363254547119,9.310416221618652,0.0385742224752903,0.0922851637005806,0.9921876192092896,-0.457763671875,0.30517578125,-0.762939453125,3.408722400665283
355.356689453125,-0.6210464239120483,-0.05650467053055763,-0.0586608350276947,-0.7795302867889404,117.0,0.8727633357048035,9.303180694580078,0.0371093787252903,0.0908203199505806,0.9926759004592896,0.0,0.457763671875,-0.152587890625,3.408722400665283
355.4095153808594,-0.6173975467681885,-0.056177034974098206,-0.05894622579216957,-0.7824256420135498,117.0,0.8664711117744446,9.301383972167969,0.0380859412252903,0.0883789137005806,0.9951173067092896,-0.152587890625,0.152587890625,-1.068115234375,3.408722400665283
355.46234130859375,-0.6152926683425903,-0.05594934523105621,-0.05923773720860481,-0.7840762138366699,118.0,0.8503009676933289,9.309186935424805,0.0366210974752903,0.0898437574505806,0.9936524629592896,0.0,0.30517578125,-0.457763671875,3.4083218574523926
355.51507568359375,-0.6110072135925293,-0.05568309873342514,-0.059606943279504776,-0.7874113917350769,118.0,0.850900411605835,9.319156646728516,0.0410156287252903,0.0883789137005806,0.9956055879592896,0.0,0.0,0.0,3.4082212448120117
355.5672912597656,-0.6087427735328674,-0.05549145117402077,-0.05979621037840843,-0.7891624569892883,119.0,0.8470067381858826,9.320423126220703,0.0385742224752903,0.0898437574505806,0.9931641817092896,0.0,0.0,0.0,3.4086217880249023
355.62054443359375,-0.6042459607124329,-0.05519726872444153,-0.05996296554803848,-0.7926186919212341,119.0,0.8615327477455139,9.310188293457031,0.0405273474752903,0.0913086012005806,0.9956055879592896,0.0,0.0,-0.152587890625,3.40812087059021
355.6730041503906,-0.5998119115829468,-0.055040501058101654,-0.06014150008559227,-0.7959769368171692,120.0,0.8866742253303528,9.310795783996582,0.0419921912252903,0.0883789137005806,0.9951173067092896,0.0,0.0,0.0,3.40812087059021
355.72576904296875,-0.5975626707077026,-0.05490793660283089,-0.06017669290304184,-0.7976733446121216,120.0,0.898348867893219,9.302356719970703,0.0361328162252903,0.0903320387005806,0.9975587129592896,0.0,-0.152587890625,-0.30517578125,3.40812087059021
355.77850341796875,-0.5954313278198242,-0.05483212321996689,-0.06024467200040817,-0.7992656230926514,121.0,0.9114845395088196,9.300995826721191,0.0405273474752903,0.0922851637005806,0.9926759004592896,0.0,-0.152587890625,-0.457763671875,3.4085214138031006
355.8316345214844,-0.5911167860031128,-0.054647766053676605,-0.060544610023498535,-0.8024517893791199,121.0,0.9240220785140991,9.311141967773438,0.0346679724752903,0.0883789137005806,0.9975587129592896,0.30517578125,0.0,-0.457763671875,3.40812087059021
355.8837585449219,-0.5863691568374634,-0.05441249907016754,-0.06091560795903206,-0.8059154748916626,122.0,0.9319961071014404,9.324090003967285,0.0434570349752903,0.0854492262005806,0.9926759004592896,0.30517578125,0.457763671875,0.457763671875,3.4085214138031006
355.93707275390625,-0.5838094353675842,-0.05430130660533905,-0.06111811846494675,-0.8077638745307922,122.0,0.9375497698783875,9.332464218139648,0.0463867224752903,0.0913086012005806,0.9907227754592896,0.152587890625,0.0,0.762939453125,3.408020496368408
355.9892883300781,-0.5789881944656372,-0.05437804013490677,-0.06119796633720398,-0.8112154603004456,123.0,0.9946364760398865,9.339400291442871,0.0405273474752903,0.0834961012005806,0.9985352754592896,0.152587890625,0.0,0.0,3.408020496368408
356.0421447753906,-0.5768787264823914,-0.05438769981265068,-0.06125771999359131,-0.812711775302887,123.0,1.0157066583633423,9.343061447143555,0.0380859412252903,0.1000976711511612,0.9931641817092896,0.0,-0.6103515625,-0.91552734375,3.408020496368408
356.0945129394531,-0.5727612376213074,-0.05437665805220604,-0.06141447648406029,-0.8156078457832336,124.0,1.051344633102417,9.351877212524414,0.0395507849752903,0.0952148586511612,0.9931641817092896,0.0,-0.30517578125,-1.983642578125,3.4084208011627197
356.1480712890625,-0.5711861252784729,-0.05438431352376938,-0.06132424622774124,-0.8167180418968201,124.0,1.0759738683700562,9.341870307922363,0.0458984412252903,0.0913086012005806,0.9926759004592896,-0.6103515625,-0.762939453125,-1.8310546875,3.408320426940918
356.200439453125,-0.5673578381538391,-0.05450686812400818,-0.0608743391931057,-0.8194074034690857,125.0,1.1604102849960327,9.302373886108398,0.0395507849752903,0.0883789137005806,0.9912110567092896,-0.91552734375,-1.220703125,-1.220703125,3.408320426940918
356.2537536621094,-0.5654272437095642,-0.05451664701104164,-0.060373853892087936,-0.8207771182060242,125.0,1.2157922983169556,9.252958297729492,0.0371093787252903,0.0820312574505806,0.9985352754592896,-0.6103515625,-0.91552734375,0.30517578125,3.4079198837280273
356.3064880371094,-0.5604864358901978,-0.0542277991771698,-0.05986924096941948,-0.8242148756980896,126.0,1.2765936851501465,9.178901672363281,0.0390625037252903,0.0839843824505806,0.9975587129592896,-0.457763671875,-0.6103515625,1.220703125,3.408320426940918
356.359130859375,-0.5550155639648438,-0.054104533046483994,-0.05966949835419655,-0.8279311656951904,126.0,1.338244915008545,9.1433744430542,0.0390625037252903,0.0913086012005806,0.9960938692092896,-0.30517578125,-1.068115234375,1.52587890625,3.408320426940918
356.41156005859375,-0.5521113872528076,-0.054300859570503235,-0.05937161669135094,-0.8298793435096741,127.0,1.407717227935791,9.122777938842773,0.0419921912252903,0.0942382961511612,0.9897462129592896,-0.6103515625,-0.91552734375,1.220703125,3.408219814300537
356.4649963378906,-0.5468192100524902,-0.05442289635539055,-0.0592447854578495,-0.8333768248558044,127.0,1.4851117134094238,9.109315872192383,0.0556640699505806,0.0991211086511612,0.9985352754592896,-0.6103515625,-0.91552734375,0.0,3.4078195095062256
356.5173645019531,-0.5442669987678528,-0.05465811863541603,-0.058940544724464417,-0.8350520730018616,128.0,1.5543937683105469,9.090375900268555,0.0541992262005806,0.0795898512005806,0.9941407442092896,-0.30517578125,-0.6103515625,1.220703125,3.408219814300537
356.5704040527344,-0.5385233163833618,-0.054726216942071915,-0.058318156749010086,-0.8388067483901978,129.0,1.6616995334625244,9.023755073547363,0.0571289137005806,0.0712890699505806,0.9990235567092896,0.0,0.0,3.204345703125,3.408219814300537
356.622802734375,-0.5341001749038696,-0.054511476308107376,-0.05817394703626633,-0.8416543006896973,129.0,1.6972465515136719,8.987693786621094,0.0522461012005806,0.0888671949505806,0.9980469942092896,-0.152587890625,0.6103515625,3.204345703125,3.4086203575134277
356.67596435546875,-0.5281663537025452,-0.05442884564399719,-0.05848146602511406,-0.8453744053840637,130.0,1.7334399223327637,9.000553131103516,0.0400390662252903,0.0932617262005806,0.9946290254592896,0.152587890625,0.152587890625,1.220703125,3.408219814300537
356.7284851074219,-0.5234254002571106,-0.05416988208889961,-0.05877341330051422,-0.8483143448829651,131.0,1.7408666610717773,9.003607749938965,0.0463867224752903,0.0913086012005806,0.9916993379592896,-0.30517578125,0.0,-2.899169921875,3.408219814300537
356.78118896484375,-0.521928608417511,-0.05396358668804169,-0.05891714617609978,-0.8492392897605896,131.0,1.7280110120773315,9.002115249633789,0.0507812574505806,0.0864257887005806,0.9960938692092896,0.0,0.0,-3.35693359375,3.408219814300537
356.8338317871094,-0.5184134840965271,-0.05376465618610382,-0.05895497277379036,-0.8513996005058289,131.0,1.7434537410736084,8.986713409423828,0.0488281324505806,0.0756836012005806,0.9960938692092896,0.0,0.457763671875,-3.204345703125,3.4086203575134277
356.88690185546875,-0.5165800452232361,-0.05332554131746292,-0.059181131422519684,-0.8525251746177673,131.0,1.7064719200134277,8.97884750366211,0.0517578199505806,0.0756836012005806,0.9951173067092896,0.762939453125,0.762939453125,-1.220703125,3.4083199501037598
356.939208984375,-0.5121302604675293,-0.05292676016688347,-0.05946861952543259,-0.8552104234695435,132.0,1.6971014738082886,8.974541664123535,0.0424804724752903,0.0795898512005806,0.9975587129592896,0.30517578125,0.6103515625,-0.762939453125,3.4083199501037598
356.9918518066406,-0.5098938345909119,-0.05242980271577835,-0.05974094942212105,-0.8565574288368225,132.0,1.6558030843734741,8.967571258544922,0.0419921912252903,0.0927734449505806,0.9956055879592896,0.152587890625,1.220703125,-1.373291015625,3.4083199501037598
357.0450439453125,-0.5054025650024414,-0.05194392800331116,-0.060448452830314636,-0.8591950535774231,133.0,1.613566279411316,9.00039291381836,0.0346679724752903,0.0966797024011612,0.9960938692092896,0.6103515625,1.068115234375,-0.457763671875,3.4083199501037598
357.09722900390625,-0.5030038356781006,-0.051455914974212646,-0.06130379065871239,-0.8605704307556152,133.0,1.5409146547317505,9.052207946777344,0.0415039099752903,0.0893554762005806,0.9907227754592896,0.30517578125,1.373291015625,-0.6103515625,3.4083199501037598
357.150390625,-0.497898668050766,-0.05068507418036461,-0.06199624389410019,-0.8635302782058716,134.0,1.478423833847046,9.067374229431152,0.0493164137005806,0.0932617262005806,0.9912110567092896,0.30517578125,1.220703125,-0.762939453125,3.4083199501037598
357.20294189453125,-0.49305394291877747,-0.05027475208044052,-0.06242780759930611,-0.866298496723175,135.0,1.463798999786377,9.078645706176758,0.0454101599752903,0.0849609449505806,0.9960938692092896,0.0,0.762939453125,-1.983642578125,3.4087204933166504
357.2560119628906,-0.49080681800842285,-0.0496625117957592,-0.06264596432447433,-0.8675931096076965,135.0,1.4141788482666016,9.061803817749023,0.0429687537252903,0.0854492262005806,0.9946290254592896,0.0,1.220703125,-0.30517578125,3.4083199501037598
357.30810546875,-0.4883093535900116,-0.04920727387070656,-0.06282258033752441,-0.8690145015716553,135.0,1.3849719762802124,9.049639701843262,0.0410156287252903,0.0766601637005806,0.9941407442092896,0.457763671875,1.373291015625,0.762939453125,3.4083199501037598
357.3611755371094,-0.4826095402240753,-0.04825666919350624,-0.06303831189870834,-0.8722302913665771,136.0,1.337180256843567,9.00894832611084,0.0341796912252903,0.0917968824505806,0.9970704317092896,0.0,1.373291015625,1.373291015625,3.4083199501037598
357.41363525390625,-0.4764954149723053,-0.04746617004275322,-0.06377784162759781,-0.8755750060081482,137.0,1.2801334857940674,9.030403137207031,0.0263671912252903,0.0874023512005806,0.9936524629592896,0.30517578125,1.068115234375,0.30517578125,3.4083199501037598
357.4667663574219,-0.47379618883132935,-0.04670799523591995,-0.06433200091123581,-0.8770389556884766,137.0,1.201520323753357,9.040812492370605,0.0292968787252903,0.0893554762005806,0.9941407442092896,0.457763671875,1.52587890625,0.6103515625,3.4083199501037598
357.5187072753906,-0.46832412481307983,-0.046127479523420334,-0.06493915617465973,-0.8799589276313782,138.0,1.1663604974746704,9.063292503356934,0.0361328162252903,0.0869140699505806,0.9926759004592896,0.457763671875,1.8310546875,0.0,3.4083199501037598
357.57183837890625,-0.46558573842048645,-0.04542548209428787,-0.06543828547000885,-0.8814104795455933,138.0,1.0968645811080933,9.072479248046875,0.0292968787252903,0.0888671949505806,0.9912110567092896,0.0,1.068115234375,-0.457763671875,3.4087204933166504
357.6243591308594,-0.4605400562286377,-0.044691212475299835,-0.065770722925663,-0.8840700387954712,139.0,1.0566065311431885,9.060819625854492,0.0288085974752903,0.0917968824505806,0.9975587129592896,0.152587890625,0.457763671875,-0.6103515625,3.408820867538452
357.6775207519531,-0.45803943276405334,-0.044379495084285736,-0.06616043299436569,-0.8853548765182495,139.0,1.0299487113952637,9.081052780151367,0.0239257849752903,0.0820312574505806,0.9985352754592896,0.762939453125,1.220703125,0.457763671875,3.4084205627441406
357.7297668457031,-0.4519112706184387,-0.04330053925514221,-0.06681028753519058,-0.8885032534599304,140.0,0.9489015936851501,9.08385944366455,0.0258789099752903,0.0927734449505806,0.9921876192092896,0.457763671875,2.288818359375,1.8310546875,3.408820867538452
357.7825622558594,-0.44862252473831177,-0.042754415422677994,-0.06740081310272217,-0.890150249004364,140.0,0.8961802124977112,9.112542152404785,0.02294922061264515,0.0957031399011612,0.9936524629592896,0.6103515625,0.6103515625,0.457763671875,3.408820867538452
357.835205078125,-0.4428313076496124,-0.04242805764079094,-0.06809759140014648,-0.8930078744888306,141.0,0.8861539959907532,9.16158676147461,0.01269531436264515,0.0976562649011612,0.9936524629592896,0.457763671875,0.457763671875,0.152587890625,3.4084205627441406
357.88763427734375,-0.4376138150691986,-0.04188349470496178,-0.068707175552845,-0.8955553770065308,142.0,0.8527968525886536,9.191655158996582,0.01855468936264515,0.1025390774011612,0.9921876192092896,0.762939453125,0.6103515625,0.30517578125,3.4084205627441406
357.940673828125,-0.4353695809841156,-0.0416908897459507,-0.06907819956541061,-0.8966288566589355,142.0,0.8373168706893921,9.218157768249512,0.02001953311264515,0.0986328274011612,0.9960938692092896,0.457763671875,0.0,-0.30517578125,3.4084205627441406
357.9930114746094,-0.4303703308105469,-0.0414760485291481,-0.0694357380270958,-0.8990216255187988,143.0,0.8485567569732666,9.239761352539062,0.01367187686264515,0.0981445461511612,0.9897462129592896,0.30517578125,0.0,-0.152587890625,3.4085209369659424
358.04608154296875,-0.42798587679862976,-0.04142538830637932,-0.06976191699504852,-0.9001362919807434,143.0,0.8516046404838562,9.268847465515137,0.02197265811264515,0.1040039211511612,1.0029298067092896,0.457763671875,-0.457763671875,-1.983642578125,3.4085209369659424
358.0987854003906,-0.42239126563072205,-0.04111601039767265,-0.07141949236392975,-0.9026595950126648,144.0,0.7960690259933472,9.420844078063965,-0.0551757887005806,0.0356445349752903,1.0429688692092896,10.3759765625,5.4931640625,2.74658203125,3.4085209369659424
358.151611328125,-0.4178292155265808,-0.03417615592479706,-0.08435685187578201,-0.9039546847343445,144.0,-0.4988301694393158,10.432446479797363,-0.2768554985523224,0.1591797024011612,0.9750977754592896,37.841796875,50.201416015625,4.57763671875,3.4085209369659424
358.2054748535156,-0.41346967220306396,-0.0045707859098911285,-0.11985671520233154,-0.9025828838348389,145.0,-5.213268756866455,12.771038055419922,-0.2250976860523224,-0.0278320349752903,1.1337891817092896,28.6865234375,100.555419921875,-13.427734375,3.4081203937530518
358.2586975097656,-0.40537354350090027,0.03988008573651314,-0.14389841258525848,-0.9018726348876953,147.0,-10.87101936340332,13.378087997436523,-0.5126953721046448,-0.3574219048023224,1.2495118379592896,-27.008056640625,93.536376953125,-89.111328125,3.4081203937530518
358.3122863769531,-0.4065232574939728,0.08463402092456818,-0.14658837020397186,-0.8978238105773926,147.0,-15.73306941986084,11.652573585510254,-0.1718750149011612,0.1704101711511612,1.0371094942092896,-48.065185546875,128.47900390625,2.13623046875,3.4081203937530518
358.36627197265625,-0.39743781089782715,0.14297953248023987,-0.14550495147705078,-0.8946662545204163,148.0,-21.807926177978516,9.091656684875488,-0.1992187798023224,0.2812500298023224,0.8217774629592896,-48.52294921875,59.814453125,-45.166015625,3.408020496368408
358.4195251464844,-0.3959929049015045,0.16930367052555084,-0.1343912035226822,-0.8924486041069031,148.0,-24.1185245513916,6.655933856964111,-0.4448242783546448,-0.1865234524011612,0.8051759004592896,-50.811767578125,31.890869140625,-77.362060546875,3.4077200889587402
358.4732360839844,-0.40576478838920593,0.20279094576835632,-0.11294512450695038,-0.8840101361274719,145.0,-26.756311416625977,2.253993272781372,-0.4814453721046448,-0.2470703423023224,0.9208985567092896,-69.88525390625,49.285888671875,-34.942626953125,3.4073195457458496
358.5264587402344,-0.39294829964637756,0.23699098825454712,-0.09739963710308075,-0.8831419348716736,146.0,-29.67894172668457,-0.9374818205833435,-0.5913086533546448,-0.2548828423023224,0.7773438692092896,-56.15234375,48.370361328125,3.35693359375,3.4073195457458496
358.5805969238281,-0.36862170696258545,0.26770493388175964,-0.08506254851818085,-0.8861242532730103,148.0,-32.48993682861328,-3.1678273677825928,-0.2797851860523224,-0.2792969048023224,0.7299805283546448,-75.68359375,29.9072265625,-21.3623046875,3.4079205989837646
358.63372802734375,-0.3650207817554474,0.2877233922481537,-0.06759287416934967,-0.8828386068344116,147.0,-33.874267578125,-6.271870136260986,-0.4145508408546448,-0.2641601860523224,0.5068359971046448,-45.7763671875,7.32421875,17.852783203125,3.408121347427368
358.6876220703125,-0.33315619826316833,0.29472213983535767,-0.06281480193138123,-0.8934200406074524,151.0,-34.64399337768555,-5.869871139526367,-0.4106445908546448,-0.4584961533546448,0.4931641221046448,-19.53125,-6.7138671875,65.61279296875,3.4083218574523926
358.7404479980469,-0.29569298028945923,0.2860773801803589,-0.07294496893882751,-0.908517062664032,157.0,-34.26012420654297,-2.5407819747924805,-0.6118164658546448,-0.3510742485523224,0.4033203721046448,28.076171875,-48.980712890625,132.75146484375,3.408522367477417
358.7948913574219,-0.25714316964149475,0.24457557499408722,-0.09528258442878723,-0.9300433993339539,164.0,-30.260635375976562,3.4150607585906982,-0.9223634004592896,-0.4873047471046448,0.6093750596046448,37.53662109375,-93.68896484375,68.511962890625,3.409123420715332
358.84765625,-0.22670377790927887,0.18046367168426514,-0.1234767809510231,-0.9491004347801208,169.0,-23.48703956604004,9.575175285339355,0.9443360567092896,0.1474609524011612,1.2578126192092896,52.947998046875,-54.01611328125,97.0458984375,3.409123420715332
358.9013671875,-0.16667741537094116,0.12878960371017456,-0.14772789180278778,-0.9663369059562683,177.0,-17.346769332885742,14.72240924835205,0.3774414658546448,-0.2416992485523224,0.8896485567092896,17.39501953125,-93.536376953125,331.573486328125,3.4087231159210205
358.9542541503906,-0.038571447134017944,0.08196456730365753,-0.16422396898269653,-0.982254683971405,191.0,-10.002367973327637,18.734201431274414,0.0268554724752903,0.8237305879592896,1.768066644668579,44.86083984375,-69.88525390625,313.1103515625,3.4087231159210205
359.0084228515625,0.09399612247943878,0.02431388944387436,-0.1716117560863495,-0.9803681969642639,-155.0,-0.8830458521842957,19.9437313079834,0.01171875186264515,0.3833008408546448,0.8940430879592896,-42.266845703125,-84.8388671875,306.09130859375,3.408622980117798
359.0614318847656,0.21919335424900055,-0.03930697590112686,-0.15247057378292084,-0.9628924131393433,-141.0,8.194727897644043,16.215158462524414,-0.01708984561264515,0.5405274033546448,0.6914063096046448,-52.947998046875,-103.302001953125,241.69921875,3.408622980117798
359.1148681640625,0.30566948652267456,-0.09837687760591507,-0.14574193954467773,-0.9357599020004272,-132.0,15.855490684509277,12.769344329833984,0.0463867224752903,0.3500976860523224,0.8574219942092896,-36.468505859375,-113.067626953125,94.29931640625,3.408622980117798
359.16851806640625,0.35779187083244324,-0.16243207454681396,-0.13939331471920013,-0.908939003944397,-125.0,23.26780128479004,8.586936950683594,-0.3461914360523224,0.1025390774011612,1.1044923067092896,-56.15234375,-34.48486328125,117.034912109375,3.4087231159210205
359.2223815917969,0.40366777777671814,-0.19883830845355988,-0.1145762950181961,-0.8856566548347473,-118.0,26.404560089111328,2.7146754264831543,-0.2153320610523224,0.8403321504592896,1.0864259004592896,-36.92626953125,-55.084228515625,147.857666015625,3.40832257270813
359.2755432128906,0.4464065432548523,-0.21727727353572845,-0.10302767157554626,-0.8619141578674316,-111.0,27.809490203857422,-1.0615015029907227,-0.3100586235523224,0.5668945908546448,1.1958009004592896,-0.30517578125,29.449462890625,86.669921875,3.40832257270813
359.3298034667969,0.48625698685646057,-0.18919603526592255,-0.08669327199459076,-0.8486711978912354,-106.0,23.91875648498535,-2.3101820945739746,-0.0278320349752903,0.7348633408546448,1.4321290254592896,61.6455078125,138.85498046875,8.23974609375,3.4079220294952393
359.38232421875,0.4903399348258972,-0.07924456149339676,-0.08552033454179764,-0.863696813583374,-107.0,12.7533597946167,4.116506576538086,-0.6142578721046448,-0.7983399629592896,1.605957269668579,151.9775390625,256.34765625,62.713623046875,3.40832257270813
359.436279296875,0.4916934072971344,0.008351605385541916,-0.08325164020061493,-0.8667390942573547,-107.0,3.8641622066497803,8.793594360351562,0.0312500037252903,0.4980469346046448,1.556152582168579,127.86865234375,173.797607421875,80.56640625,3.4079220294952393
359.48895263671875,0.49132490158081055,0.084279365837574,-0.11816519498825073,-0.858797550201416,-106.0,-1.6413371562957764,16.612327575683594,0.1308593899011612,0.2861328423023224,1.711914300918579,164.48974609375,99.334716796875,-223.846435546875,3.4079220294952393
359.54290771484375,0.435970664024353,0.17148838937282562,-0.10629456490278244,-0.8770530223846436,-111.0,-12.012564659118652,20.090381622314453,0.1669922024011612,-0.3413086235523224,0.6010742783546448,73.54736328125,116.424560546875,-61.187744140625,3.4075217247009277
359.5964050292969,0.4106042981147766,0.22639676928520203,-0.11511518806219101,-0.875726580619812,-112.0,-17.577150344848633,23.986268997192383,0.0878906324505806,0.1162109524011612,0.1577148586511612,61.6455078125,37.994384765625,-84.075927734375,3.4075217247009277
359.6492919921875,0.37667927145957947,0.2323668897151947,-0.12829576432704926,-0.8875010013580322,-116.0,-18.409053802490234,25.11931037902832,0.1162109524011612,-0.2919922173023224,-0.0947265774011612,0.457763671875,-73.089599609375,-20.599365234375,3.4075217247009277
359.70263671875,0.35858678817749023,0.1699504554271698,-0.13109008967876434,-0.9084864258766174,-120.0,-12.402680397033691,21.63393783569336,-0.1787109524011612,-0.0913086012005806,0.3286133110523224,-127.716064453125,-245.819091796875,-138.092041015625,3.4075217247009277
359.75677490234375,0.25835198163986206,0.18959879875183105,-0.10051515698432922,-0.9419138431549072,-133.0,-17.772296905517578,17.56088638305664,-2.106933832168579,0.3686523735523224,3.052734851837158,58.441162109375,80.87158203125,-75.836181640625,3.4070208072662354
359.8106689453125,0.32354724407196045,0.1376269906759262,-0.13131798803806305,-0.9268931746482849,-126.0,-9.796882629394531,19.71938705444336,1.844726800918579,-0.4394531846046448,1.2270509004592896,-54.779052734375,-290.52734375,143.73779296875,3.4070208072662354
359.8639831542969,0.3527378439903259,0.15099434554576874,-0.1629914939403534,-0.9089605808258057,-122.0,-9.178413391113281,24.082618713378906,0.3046875298023224,0.2504883110523224,0.1323242336511612,-132.75146484375,-27.16064453125,-34.027099609375,3.4070208072662354
359.9178771972656,0.35885536670684814,0.10278728604316711,-0.1328335404396057,-0.9181568622589111,-122.0,-5.360022068023682,18.607967376708984,0.5922852158546448,-0.4584961533546448,1.523437738418579,-41.50390625,-141.90673828125,289.459228515625,3.4066202640533447
359.9709167480469,0.48430049419403076,0.06854144483804703,-0.14266914129257202,-0.8604652285575867,-107.0,1.1594252586364746,18.178407669067383,-0.0590820387005806,-0.0463867224752903,1.1552735567092896,-77.5146484375,-157.470703125,287.933349609375,3.4070208072662354
360.02496337890625,0.4843690097332001,0.0119671281427145,-0.1486482471227646,-0.862059473991394,-108.0,7.086546421051025,15.660847663879395,-0.0366210974752903,0.7573243379592896,0.8090821504592896,-48.065185546875,-110.321044921875,61.187744140625,3.4066202640533447
360.07781982421875,0.5075672268867493,-0.04463890194892883,-0.15529930591583252,-0.8463243842124939,-106.0,13.485995292663574,12.927701950073242,-0.0825195387005806,-0.01513672061264515,0.9277344942092896,-26.2451171875,-99.029541015625,87.432861328125,3.4070208072662354
360.1316833496094,0.5439661741256714,-0.09458097815513611,-0.1550479233264923,-0.8192158341407776,-100.0,18.88357162475586,9.191518783569336,-0.3466797173023224,0.4101563096046448,0.8789063692092896,-52.337646484375,-40.283203125,117.1875,3.406519889831543
360.18475341796875,0.5792886018753052,-0.12541626393795013,-0.13927456736564636,-0.7932828068733215,-95.0,21.121170043945312,4.652543544769287,-0.2465820610523224,0.5664063096046448,0.7387695908546448,-32.65380859375,-13.885498046875,107.269287109375,3.4069201946258545
360.2386169433594,0.6023164987564087,-0.12148842960596085,-0.12651298940181732,-0.7787484526634216,-91.0,19.975576400756836,3.0920214653015137,0.0468750074505806,0.6201172471046448,1.0576173067092896,-10.528564453125,57.06787109375,-7.01904296875,3.406519889831543
360.2913818359375,0.610153079032898,-0.08736294507980347,-0.10501071065664291,-0.7804183959960938,-90.0,15.33751392364502,3.406008005142212,-0.3940430283546448,0.4506836533546448,1.3320313692092896,53.1005859375,169.98291015625,53.1005859375,3.406519889831543
360.3446350097656,0.6205587983131409,0.01178092509508133,-0.06621727347373962,-0.7812702655792236,-89.0,3.656534194946289,6.795707702636719,0.4316406846046448,0.2900390923023224,1.583496332168579,166.93115234375,167.694091796875,-202.0263671875,3.4069201946258545
360.39788818359375,0.5848676562309265,0.10302872955799103,-0.10733840614557266,-0.7973660230636597,-93.0,-2.220520257949829,16.97244644165039,0.0249023474752903,0.8090821504592896,1.0341798067092896,204.16259765625,72.32666015625,27.923583984375,3.4069201946258545
360.45147705078125,0.5443116426467896,0.1474527269601822,-0.15961135923862457,-0.8102507591247559,-97.0,-3.7378036975860596,24.83867073059082,0.2211914360523224,0.7685548067092896,2.362793207168579,158.538818359375,-117.1875,-193.78662109375,3.406519889831543
360.504638671875,0.39723387360572815,0.186423659324646,-0.1816806197166443,-0.8800241947174072,-115.0,-10.589735984802246,28.42327880859375,0.6210938096046448,-0.4531250596046448,1.0200196504592896,-12.359619140625,62.8662109375,-291.900634765625,3.407020330429077
360.5581359863281,0.311654269695282,0.2179245948791504,-0.19507288932800293,-0.9040613174438477,-124.0,-15.809737205505371,30.514585494995117,0.2436523735523224,0.007812500931322575,0.6064453721046448,80.718994140625,-33.721923828125,-194.7021484375,3.4072206020355225
360.6117858886719,0.2255503088235855,0.2209775447845459,-0.2125224769115448,-0.9247324466705322,-133.0,-18.229331970214844,31.24992561340332,0.0815429762005806,-0.6284180283546448,0.3500976860523224,6.866455078125,-97.35107421875,-139.46533203125,3.4072206020355225
360.6654357910156,0.1644974946975708,0.18932543694972992,-0.197110116481781,-0.9477570056915283,-142.0,-17.098827362060547,27.133880615234375,-0.0439453162252903,0.0537109449505806,0.8867188692092896,-82.550048828125,-72.021484375,-158.38623046875,3.406820058822632
