timestamp,Qx_sensor1,Qy_sensor1,Qz_sensor1,Qw_sensor1,Heading_sensor1,Pitch_sensor1,Roll_sensor1,accx,accy,accz,gx,gy,gz,Vbat
205.56980895996094,-0.994911253452301,-0.009403221309185028,0.04915665462613106,-0.08744767308235168,24.0,5.707937717437744,0.5823564529418945,0.0678711012005806,0.0454101599752903,1.0014649629592896,-1.52587890625,3.96728515625,7.32421875,3.419344902038574
205.62168884277344,-0.9945647716522217,-0.008930446580052376,0.047120727598667145,-0.09241713583469391,25.0,5.473184585571289,0.5211556553840637,0.0722656324505806,0.0551757887005806,1.0000001192092896,0.0,3.204345703125,8.544921875,3.4196457862854004
205.6743621826172,-0.9942850470542908,-0.008418349549174309,0.045228756964206696,-0.09633853286504745,25.0,5.253507614135742,0.4617968201637268,0.0683593824505806,0.0664062574505806,0.9877930879592896,-1.220703125,3.204345703125,6.103515625,3.4196457862854004
205.72679138183594,-0.9941091537475586,-0.008748180232942104,0.04405699670314789,-0.09863852709531784,25.0,5.124531269073486,0.5005869269371033,0.0698242262005806,0.0654296949505806,0.9868165254592896,-1.52587890625,2.288818359375,3.0517578125,3.4196457862854004
205.7792510986328,-0.993972897529602,-0.008386894129216671,0.042945269495248795,-0.10051866620779037,26.0,4.9944329261779785,0.4623660445213318,0.0634765699505806,0.0380859412252903,0.9980469942092896,-1.068115234375,1.52587890625,2.593994140625,3.419745922088623
205.83245849609375,-0.9936837553977966,-0.007828163914382458,0.041833821684122086,-0.10383280366659164,26.0,4.862501621246338,0.39504653215408325,0.0551757887005806,0.0327148474752903,1.0107423067092896,-0.762939453125,1.52587890625,3.96728515625,3.419344902038574
205.88470458984375,-0.9933407306671143,-0.007878751493990421,0.040510401129722595,-0.10756855458021164,26.0,4.713669300079346,0.39882892370224,0.0673828199505806,0.0639648512005806,0.9936524629592896,-0.6103515625,2.288818359375,5.950927734375,3.419344902038574
205.937744140625,-0.9930724501609802,-0.007888338528573513,0.03967685624957085,-0.11032290756702423,27.0,4.619865417480469,0.39737120270729065,0.0493164137005806,0.0537109449505806,1.0029298067092896,-0.152587890625,1.678466796875,4.57763671875,3.418843984603882
205.9899139404297,-0.9928150773048401,-0.007939431816339493,0.03868610039353371,-0.11295526474714279,27.0,4.5086669921875,0.4037657082080841,0.0571289137005806,0.0429687537252903,1.0000001192092896,-0.30517578125,1.220703125,3.662109375,3.4189441204071045
206.04302978515625,-0.9924452900886536,-0.007991913706064224,0.03790907561779022,-0.1164114698767662,27.0,4.422241687774658,0.4043959677219391,0.0659179762005806,0.0478515699505806,0.9956055879592896,-0.152587890625,1.8310546875,5.79833984375,3.4185433387756348
206.09490966796875,-0.9920948147773743,-0.008194904774427414,0.03739461302757263,-0.11950886249542236,28.0,4.367688179016113,0.42076095938682556,0.0507812574505806,0.0546875074505806,0.9916993379592896,-0.30517578125,1.220703125,4.425048828125,3.4185433387756348
206.1482391357422,-0.991860568523407,-0.007982146926224232,0.03677085041999817,-0.12164486199617386,28.0,4.294619560241699,0.3957895338535309,0.0551757887005806,0.0546875074505806,0.9975587129592896,-0.91552734375,0.91552734375,1.8310546875,3.4180424213409424
206.2004852294922,-0.9916466474533081,-0.00819767452776432,0.0365140363574028,-0.12343650311231613,28.0,4.26915168762207,0.41621264815330505,0.0581054762005806,0.0473632887005806,1.0034180879592896,-0.30517578125,0.152587890625,0.91552734375,3.418142557144165
206.25315856933594,-0.9915304183959961,-0.00783752091228962,0.03642117232084274,-0.12441732734441757,28.0,4.25385856628418,0.37227216362953186,0.0512695387005806,0.0444335974752903,0.9931641817092896,-0.6103515625,0.762939453125,1.373291015625,3.4177417755126953
206.30625915527344,-0.9913936853408813,-0.00824362225830555,0.03598056733608246,-0.1256023794412613,28.0,4.210022449493408,0.41978877782821655,0.0600586012005806,0.0415039099752903,0.9990235567092896,-0.30517578125,0.0,0.0,3.4174411296844482
206.35809326171875,-0.9913042187690735,-0.008225946687161922,0.03609199821949005,-0.12627646327018738,29.0,4.222727298736572,0.41329362988471985,0.0610351637005806,0.0361328162252903,0.9941407442092896,-0.6103515625,0.0,0.762939453125,3.4173409938812256
206.4105987548828,-0.9911960959434509,-0.008397812955081463,0.03603685647249222,-0.12712669372558594,29.0,4.21931266784668,0.43004363775253296,0.0576171949505806,0.0434570349752903,1.0014649629592896,-0.6103515625,-0.30517578125,0.152587890625,3.4173409938812256
206.46328735351562,-0.9910999536514282,-0.008400771766901016,0.03602728247642517,-0.1278766542673111,29.0,4.218591213226318,0.4273226261138916,0.0507812574505806,0.0415039099752903,0.9995118379592896,0.0,0.0,-0.457763671875,3.4174411296844482
206.5162811279297,-0.9910080432891846,-0.008832559920847416,0.0360596589744091,-0.1285485178232193,29.0,4.22892427444458,0.47314977645874023,0.0581054762005806,0.0483398512005806,0.9965821504592896,-0.152587890625,0.0,-0.6103515625,3.4173409938812256
206.56871032714844,-0.9909810423851013,-0.009300347417593002,0.03623371571302414,-0.12867458164691925,29.0,4.255676746368408,0.5233126878738403,0.0576171949505806,0.0419921912252903,0.9956055879592896,-0.457763671875,-0.30517578125,-0.6103515625,3.4174411296844482
206.62179565429688,-0.9910120368003845,-0.009310232475399971,0.0363144613802433,-0.1284136325120926,29.0,4.264867782592773,0.5243725776672363,0.0605468824505806,0.0478515699505806,0.9975587129592896,-0.762939453125,-0.762939453125,-1.52587890625,3.4170401096343994
206.6741485595703,-0.9909031987190247,-0.009532144293189049,0.03661008179187775,-0.12915031611919403,29.0,4.3021559715271,0.5420900583267212,0.0561523512005806,0.0415039099752903,1.0029298067092896,0.30517578125,-0.152587890625,-0.6103515625,3.417140245437622
206.72744750976562,-0.9908813238143921,-0.009859669022262096,0.03667648509144783,-0.12927427887916565,29.0,4.314626693725586,0.5778637528419495,0.0541992262005806,0.0434570349752903,0.9975587129592896,0.152587890625,0.0,0.0,3.4166393280029297
206.77951049804688,-0.9907479286193848,-0.0104075837880373,0.03639597445726395,-0.13032864034175873,29.0,4.291528701782227,0.6398363709449768,0.0605468824505806,0.0444335974752903,0.9995118379592896,0.0,-0.152587890625,-0.30517578125,3.4166393280029297
206.8324432373047,-0.9907199144363403,-0.01064592320472002,0.036496710032224655,-0.130494624376297,29.0,4.306652545928955,0.6647470593452454,0.0537109449505806,0.0424804724752903,0.9965821504592896,0.30517578125,-0.152587890625,0.0,3.4163386821746826
206.8843536376953,-0.9906446933746338,-0.011270356364548206,0.03619958087801933,-0.13109427690505981,29.0,4.282652378082275,0.7376846671104431,0.0615234449505806,0.0493164137005806,0.9970704317092896,0.0,0.0,-0.457763671875,3.41623854637146
206.93759155273438,-0.9906290173530579,-0.011529173702001572,0.03610846400260925,-0.1312161535024643,29.0,4.276275634765625,0.7679898738861084,0.0610351637005806,0.0522461012005806,0.9941407442092896,0.457763671875,-0.152587890625,-0.30517578125,3.4161384105682373
206.9898223876953,-0.9905548691749573,-0.012174933217465878,0.0362623892724514,-0.13167360424995422,29.0,4.303865909576416,0.8372060060501099,0.0595703199505806,0.0478515699505806,0.9975587129592896,0.152587890625,0.0,0.152587890625,3.4161384105682373
207.0427703857422,-0.9904065728187561,-0.012594259344041348,0.036303333938121796,-0.13273409008979797,29.0,4.3157877922058105,0.8796982169151306,0.0600586012005806,0.0444335974752903,0.9990235567092896,0.152587890625,-0.30517578125,-0.457763671875,3.415637493133545
207.0947265625,-0.9903529286384583,-0.013035958632826805,0.03652558475732803,-0.13303101062774658,29.0,4.34804105758667,0.9252985119819641,0.0620117262005806,0.0541992262005806,0.9956055879592896,0.152587890625,-0.457763671875,-0.152587890625,3.415938138961792
207.14755249023438,-0.9903002977371216,-0.013442981988191605,0.03675755485892296,-0.1333175152540207,29.0,4.380886077880859,0.9668334722518921,0.0615234449505806,0.0571289137005806,0.9965821504592896,0.0,-0.30517578125,-1.678466796875,3.415938138961792
207.2003631591797,-0.9903241395950317,-0.013934403657913208,0.036925360560417175,-0.13304400444030762,29.0,4.407177925109863,1.0214351415634155,0.0541992262005806,0.0434570349752903,1.0009766817092896,0.152587890625,-0.457763671875,-1.373291015625,3.415938138961792
207.25343322753906,-0.9902778267860413,-0.014335648156702518,0.037173155695199966,-0.13327611982822418,29.0,4.441702365875244,1.062304139137268,0.0605468824505806,0.0395507849752903,1.0004884004592896,0.0,-0.152587890625,-0.91552734375,3.4155373573303223
207.3057403564453,-0.9902514815330505,-0.01468463521450758,0.03722323849797249,-0.13341985642910004,29.0,4.452878475189209,1.1006224155426025,0.0625000074505806,0.0444335974752903,0.9985352754592896,0.0,-0.152587890625,0.152587890625,3.415637493133545
207.35873413085938,-0.9901143908500671,-0.01466276589781046,0.03746090829372406,-0.13436974585056305,29.0,4.480605125427246,1.0902070999145508,0.0673828199505806,0.0571289137005806,0.9946290254592896,-0.152587890625,0.0,0.457763671875,3.4155373573303223
207.41087341308594,-0.990020751953125,-0.014925063587725163,0.037490226328372955,-0.13502131402492523,30.0,4.488707542419434,1.1166542768478394,0.0600586012005806,0.0576171949505806,1.0004884004592896,0.0,-0.6103515625,-0.30517578125,3.4155373573303223
207.4640655517578,-0.9898965358734131,-0.015462205745279789,0.0372936837375164,-0.13592299818992615,30.0,4.475748062133789,1.1767349243164062,0.0654296949505806,0.0541992262005806,0.9975587129592896,0.0,0.30517578125,0.0,3.415236711502075
207.51588439941406,-0.9898042678833008,-0.015887586399912834,0.037249207496643066,-0.1365565061569214,30.0,4.478095054626465,1.2229632139205933,0.0595703199505806,0.0537109449505806,0.9951173067092896,0.457763671875,0.0,-0.6103515625,3.415236711502075
207.56874084472656,-0.9897764325141907,-0.016177553683519363,0.037036702036857605,-0.13678225874900818,30.0,4.458771705627441,1.2582505941390991,0.0605468824505806,0.0410156287252903,1.0034180879592896,0.0,0.0,-0.30517578125,3.415236711502075
207.621337890625,-0.9896778464317322,-0.01624206267297268,0.03662138804793358,-0.13759635388851166,30.0,4.413643836975098,1.2684333324432373,0.0644531324505806,0.0473632887005806,0.9936524629592896,0.0,0.30517578125,0.762939453125,3.415336847305298
207.67376708984375,-0.9895934462547302,-0.016600999981164932,0.036479514092206955,-0.13819746673107147,30.0,4.403975486755371,1.3088164329528809,0.0585937574505806,0.0444335974752903,0.9941407442092896,0.30517578125,0.30517578125,1.068115234375,3.415637493133545
207.72634887695312,-0.9894759654998779,-0.017015613615512848,0.036336611956357956,-0.1390235871076584,30.0,4.395432949066162,1.354559063911438,0.0654296949505806,0.0581054762005806,0.9921876192092896,0.0,0.6103515625,1.373291015625,3.415637493133545
207.77920532226562,-0.9893686175346375,-0.01727764494717121,0.03611759841442108,-0.1398104578256607,30.0,4.375830173492432,1.3843493461608887,0.0620117262005806,0.0527343824505806,0.9970704317092896,0.152587890625,0.152587890625,0.6103515625,3.415236711502075
207.83128356933594,-0.989237904548645,-0.017753640189766884,0.036073967814445496,-0.1406838744878769,30.0,4.379757881164551,1.435308575630188,0.0629882887005806,0.0444335974752903,0.9990235567092896,0.0,-0.152587890625,-0.762939453125,3.415236711502075
207.88436889648438,-0.9892396926879883,-0.018028050661087036,0.036169953644275665,-0.1406119465827942,30.0,4.394966125488281,1.4652965068817139,0.0581054762005806,0.0561523512005806,0.9956055879592896,0.0,0.0,0.457763671875,3.4148359298706055
207.93701171875,-0.9890977144241333,-0.018097514286637306,0.03603063523769379,-0.14163370430469513,30.0,4.381786346435547,1.4708949327468872,0.0585937574505806,0.0556640699505806,0.9985352754592896,0.0,0.0,-0.6103515625,3.415236711502075
207.98963928222656,-0.9890511631965637,-0.01824146881699562,0.03586435317993164,-0.14198164641857147,30.0,4.365765571594238,1.4884083271026611,0.0581054762005806,0.0522461012005806,0.9970704317092896,0.0,0.0,0.0,3.4148359298706055
208.04124450683594,-0.9890156984329224,-0.018693236634135246,0.03646254166960716,-0.14201755821704865,30.0,4.441063404083252,1.5299409627914429,0.0620117262005806,0.0488281324505806,1.0000001192092896,0.152587890625,-0.457763671875,-0.91552734375,3.415236711502075
208.09454345703125,-0.9889432191848755,-0.018807092681527138,0.03635215014219284,-0.14253497123718262,30.0,4.431189060211182,1.5423504114151,0.0625000074505806,0.0444335974752903,0.9975587129592896,-0.30517578125,-0.152587890625,-0.152587890625,3.4148359298706055
208.14743041992188,-0.9889264106750488,-0.01903170719742775,0.036432553082704544,-0.1426011472940445,30.0,4.444082260131836,1.566286325454712,0.0605468824505806,0.0527343824505806,0.9995118379592896,0.0,-0.152587890625,0.0,3.4148359298706055
208.1995391845703,-0.9888266324996948,-0.019256677478551865,0.03602113574743271,-0.14336471259593964,30.0,4.402284145355225,1.5951396226882935,0.0610351637005806,0.0517578199505806,0.9975587129592896,0.152587890625,0.0,0.152587890625,3.4148359298706055
208.25244140625,-0.9887688159942627,-0.019363705068826675,0.03590017184615135,-0.14377930760383606,31.0,4.390984535217285,1.6074371337890625,0.0546875074505806,0.0532226637005806,0.9980469942092896,0.152587890625,-0.30517578125,-0.762939453125,3.4148359298706055
208.30467224121094,-0.9887343645095825,-0.01981833018362522,0.03544517233967781,-0.14406722784042358,31.0,4.347308158874512,1.6652934551239014,0.0644531324505806,0.0458984412252903,0.9975587129592896,0.30517578125,-0.152587890625,0.0,3.4148359298706055
208.3577117919922,-0.9887199997901917,-0.020000435411930084,0.03540610894560814,-0.14414988458156586,31.0,4.3460164070129395,1.6862691640853882,0.0649414137005806,0.0488281324505806,0.9975587129592896,0.0,-0.152587890625,-0.152587890625,3.414735794067383
208.40992736816406,-0.988632082939148,-0.020069541409611702,0.0355931892991066,-0.144696444272995,31.0,4.369319915771484,1.688637137413025,0.0644531324505806,0.0498046949505806,0.9980469942092896,0.0,-0.457763671875,-0.457763671875,3.41503643989563
208.46246337890625,-0.9885736107826233,-0.02014927938580513,0.03570524603128433,-0.14505663514137268,31.0,4.383971691131592,1.6942555904388428,0.0600586012005806,0.0502929762005806,0.9970704317092896,0.152587890625,-0.152587890625,-0.152587890625,3.41503643989563
208.5154266357422,-0.9884493350982666,-0.0203899834305048,0.035834066569805145,-0.1458364874124527,31.0,4.403936386108398,1.7160078287124634,0.0615234449505806,0.0483398512005806,0.9965821504592896,0.152587890625,-0.457763671875,0.152587890625,3.414735794067383
208.56820678710938,-0.9883466958999634,-0.020910074934363365,0.03580907732248306,-0.14646263420581818,31.0,4.410897254943848,1.7727305889129639,0.0629882887005806,0.0517578199505806,1.0000001192092896,0.6103515625,0.0,0.6103515625,3.414335012435913
208.620361328125,-0.9882864952087402,-0.021500438451766968,0.03556085750460625,-0.14684376120567322,31.0,4.393334865570068,1.8422541618347168,0.0644531324505806,0.0537109449505806,0.9951173067092896,0.6103515625,-0.152587890625,1.068115234375,3.414735794067383
208.67335510253906,-0.9881675243377686,-0.022106319665908813,0.03569294139742851,-0.14752015471458435,31.0,4.419793128967285,1.9058682918548584,0.0610351637005806,0.0571289137005806,0.9970704317092896,0.30517578125,-0.30517578125,0.152587890625,3.4142348766326904
208.7252655029297,-0.9881268739700317,-0.02261269837617874,0.03585004806518555,-0.14767780900001526,31.0,4.446465015411377,1.9600619077682495,0.0605468824505806,0.0590820387005806,0.9951173067092896,0.457763671875,-0.457763671875,-0.762939453125,3.41463565826416
208.77859497070312,-0.9880687594413757,-0.023081442341208458,0.035714466124773026,-0.14802682399749756,31.0,4.4397101402282715,2.0140268802642822,0.0620117262005806,0.0581054762005806,0.9985352754592896,0.30517578125,0.0,-0.457763671875,3.4141347408294678
208.8304901123047,-0.9880767464637756,-0.023516369983553886,0.03576028719544411,-0.14789442718029022,31.0,4.451988697052002,2.0632708072662354,0.0678711012005806,0.0527343824505806,0.9965821504592896,0.30517578125,-0.457763671875,0.0,3.4145355224609375
208.88406372070312,-0.9880027174949646,-0.02358739823102951,0.035822585225105286,-0.14836108684539795,31.0,4.461231708526611,2.068185567855835,0.0678711012005806,0.0610351637005806,0.9951173067092896,0.0,-0.457763671875,-0.762939453125,3.414435386657715
208.9359893798828,-0.9880055785179138,-0.023912597447633743,0.03593764826655388,-0.14826247096061707,31.0,4.479584693908691,2.103644609451294,0.0615234449505806,0.0615234449505806,0.9985352754592896,0.152587890625,-0.457763671875,-1.068115234375,3.414736032485962
208.98849487304688,-0.987963080406189,-0.024061324074864388,0.03593559190630913,-0.14852221310138702,31.0,4.482428550720215,2.1193978786468506,0.0654296949505806,0.0605468824505806,0.9960938692092896,0.152587890625,0.152587890625,-1.068115234375,3.4148361682891846
209.0413818359375,-0.9879686236381531,-0.024085715413093567,0.03566867858171463,-0.1485457718372345,31.0,4.45262336730957,2.1265618801116943,0.0693359449505806,0.0590820387005806,0.9946290254592896,0.152587890625,0.152587890625,-0.762939453125,3.4149363040924072
209.09417724609375,-0.9879502654075623,-0.024379411712288857,0.03555472567677498,-0.14864647388458252,31.0,4.444904804229736,2.161397695541382,0.0654296949505806,0.0576171949505806,0.9965821504592896,0.0,-0.152587890625,-0.457763671875,3.4145355224609375
209.14642333984375,-0.9879528880119324,-0.024830304086208344,0.03510969877243042,-0.14866012334823608,31.0,4.402124881744385,2.2200679779052734,0.0664062574505806,0.0581054762005806,0.9980469942092896,-0.30517578125,0.0,0.0,3.4149363040924072
209.199462890625,-0.9879094958305359,-0.0246878731995821,0.03542935103178024,-0.14889660477638245,31.0,4.436481952667236,2.197432518005371,0.0620117262005806,0.0546875074505806,0.9970704317092896,-0.152587890625,-0.152587890625,0.152587890625,3.4145355224609375
209.25164794921875,-0.9878461956977844,-0.024605559185147285,0.03517746552824974,-0.14938879013061523,31.0,4.407609462738037,2.1901371479034424,0.0654296949505806,0.0561523512005806,0.9970704317092896,-0.6103515625,0.0,-0.30517578125,3.4145355224609375
209.3044891357422,-0.9878098368644714,-0.024440404027700424,0.03511516749858856,-0.14967080950737,31.0,4.398346424102783,2.171175241470337,0.0610351637005806,0.0541992262005806,0.9985352754592896,-0.6103515625,-0.152587890625,0.0,3.4145355224609375
209.35699462890625,-0.9877744913101196,-0.024628611281514168,0.034932926297187805,-0.14991562068462372,31.0,4.381445407867432,2.194561243057251,0.0644531324505806,0.0512695387005806,0.9965821504592896,-0.30517578125,-0.152587890625,0.30517578125,3.4149363040924072
209.40948486328125,-0.9876775741577148,-0.024455668404698372,0.03516208752989769,-0.15052829682826996,31.0,4.405810832977295,2.168283224105835,0.0693359449505806,0.0488281324505806,0.9970704317092896,-0.152587890625,-0.30517578125,0.762939453125,3.4149363040924072
209.46246337890625,-0.9875343441963196,-0.024271944537758827,0.03526529297232628,-0.1514703333377838,31.0,4.41639518737793,2.1414363384246826,0.0644531324505806,0.0498046949505806,0.9975587129592896,-0.30517578125,-0.30517578125,1.373291015625,3.41503643989563
209.515380859375,-0.9873970746994019,-0.02427898347377777,0.03555697575211525,-0.15229399502277374,32.0,4.451362133026123,2.1335034370422363,0.0659179762005806,0.0561523512005806,0.9965821504592896,-0.30517578125,-0.152587890625,1.52587890625,3.41463565826416
209.5675811767578,-0.9872732162475586,-0.024599561467766762,0.03550627827644348,-0.1530546098947525,32.0,4.452865123748779,2.1673479080200195,0.0610351637005806,0.0595703199505806,0.9975587129592896,-0.457763671875,-0.152587890625,1.068115234375,3.4149363040924072
209.6201629638672,-0.987180769443512,-0.024728378280997276,0.03573286160826683,-0.1535768210887909,32.0,4.481947898864746,2.175663709640503,0.0668945387005806,0.0546875074505806,0.9970704317092896,0.0,-0.457763671875,0.6103515625,3.4149363040924072
209.67286682128906,-0.9870162010192871,-0.024694357067346573,0.03605743125081062,-0.15456092357635498,32.0,4.520288944244385,2.1616320610046387,0.0688476637005806,0.0517578199505806,0.9960938692092896,-0.6103515625,-0.152587890625,1.220703125,3.4149363040924072
209.7259063720703,-0.9868971705436707,-0.024770885705947876,0.03594367206096649,-0.15533356368541718,32.0,4.51045036315918,2.1687800884246826,0.0649414137005806,0.0576171949505806,0.9960938692092896,-0.762939453125,-0.457763671875,0.457763671875,3.4145355224609375
209.7781219482422,-0.9868418574333191,-0.024697251617908478,0.03623531013727188,-0.15562871098518372,32.0,4.542827129364014,2.153918743133545,0.0673828199505806,0.0537109449505806,1.0000001192092896,0.0,-0.30517578125,0.30517578125,3.4145355224609375
209.83126831054688,-0.9867891073226929,-0.02503957785665989,0.036100029945373535,-0.15593944489955902,32.0,4.534280776977539,2.1937344074249268,0.0693359449505806,0.0537109449505806,0.9960938692092896,-0.30517578125,-0.152587890625,0.457763671875,3.4141347408294678
209.88343811035156,-0.9867377281188965,-0.025049686431884766,0.03605583682656288,-0.15627294778823853,32.0,4.530196189880371,2.1941306591033936,0.0673828199505806,0.0527343824505806,0.9985352754592896,-0.152587890625,-0.30517578125,0.457763671875,3.41463565826416
209.9365234375,-0.9866645932197571,-0.025487642735242844,0.03570198640227318,-0.1567438840866089,32.0,4.4990081787109375,2.247960090637207,0.0678711012005806,0.0507812574505806,0.9970704317092896,0.152587890625,0.30517578125,0.91552734375,3.414335012435913
209.98854064941406,-0.9865915179252625,-0.025806456804275513,0.03532928228378296,-0.15723612904548645,32.0,4.463647365570068,2.2885377407073975,0.0678711012005806,0.0517578199505806,0.9970704317092896,0.152587890625,0.0,0.91552734375,3.414735794067383
210.04124450683594,-0.9864484667778015,-0.025705158710479736,0.03539593145251274,-0.15813258290290833,32.0,4.471441268920898,2.27178692817688,0.0708007887005806,0.0478515699505806,0.9965821504592896,0.0,0.30517578125,1.220703125,3.4144351482391357
210.0939483642578,-0.98634272813797,-0.025568289682269096,0.035121407359838486,-0.15887361764907837,32.0,4.439578533172607,2.257847309112549,0.0712890699505806,0.0478515699505806,0.9960938692092896,0.0,0.0,0.91552734375,3.4144351482391357
210.14602661132812,-0.9861813187599182,-0.025401171296834946,0.03495527058839798,-0.15993548929691315,32.0,4.420144081115723,2.237123489379883,0.0654296949505806,0.0502929762005806,0.9975587129592896,0.0,0.0,0.91552734375,3.4145350456237793
210.19900512695312,-0.9860318303108215,-0.02535836771130562,0.0348481684923172,-0.16088412702083588,32.0,4.409383773803711,2.2299678325653076,0.0712890699505806,0.0463867224752903,0.9985352754592896,0.0,0.30517578125,0.6103515625,3.4144351482391357
210.25076293945312,-0.9859402179718018,-0.02542881853878498,0.035230956971645355,-0.16135066747665405,33.0,4.4550604820251465,2.228853464126587,0.0654296949505806,0.0522461012005806,0.9965821504592896,0.0,0.0,1.068115234375,3.414936065673828
210.3035430908203,-0.9858387112617493,-0.025431284680962563,0.03531811758875847,-0.16195064783096313,33.0,4.466325759887695,2.2248148918151855,0.0693359449505806,0.0517578199505806,0.9965821504592896,0.0,0.152587890625,1.068115234375,3.414936065673828
210.35598754882812,-0.9857158660888672,-0.025505900382995605,0.03514255955815315,-0.1627233475446701,33.0,4.449590682983398,2.2330117225646973,0.0649414137005806,0.0517578199505806,1.0009766817092896,0.0,-0.152587890625,0.91552734375,3.415336847305298
210.4084930419922,-0.9856157898902893,-0.0256650447845459,0.035110510885715485,-0.1633097380399704,33.0,4.450262069702148,2.248994827270508,0.0673828199505806,0.0478515699505806,0.9975587129592896,0.0,0.0,0.30517578125,3.415336847305298
210.46128845214844,-0.9854691624641418,-0.025404857471585274,0.03530286252498627,-0.16419218480587006,33.0,4.469150543212891,2.211928367614746,0.0683593824505806,0.0478515699505806,0.9946290254592896,0.0,0.0,1.52587890625,3.4154369831085205
210.5139617919922,-0.9853640794754028,-0.02562527544796467,0.035414233803749084,-0.16476260125637054,33.0,4.487178325653076,2.2322330474853516,0.0678711012005806,0.0546875074505806,0.9970704317092896,0.0,-0.152587890625,1.220703125,3.415036201477051
210.566162109375,-0.9852481484413147,-0.025586852803826332,0.03564560413360596,-0.16541123390197754,33.0,4.514089107513428,2.220573663711548,0.0649414137005806,0.0532226637005806,0.9970704317092896,0.152587890625,-0.30517578125,-0.457763671875,3.415036201477051
210.6186981201172,-0.985200822353363,-0.02596382424235344,0.035659387707710266,-0.1656309962272644,33.0,4.523280143737793,2.2620232105255127,0.0698242262005806,0.0483398512005806,0.9980469942092896,0.457763671875,0.0,0.152587890625,3.415336847305298
210.67149353027344,-0.9851711988449097,-0.026286177337169647,0.03547054901719093,-0.16579701006412506,33.0,4.5084123611450195,2.3013417720794678,0.0693359449505806,0.0434570349752903,0.9960938692092896,0.30517578125,0.0,0.762939453125,3.415336847305298
210.72421264648438,-0.9851428270339966,-0.026592016220092773,0.03555077686905861,-0.16589951515197754,33.0,4.523523807525635,2.334016799926758,0.0727539137005806,0.0478515699505806,0.9946290254592896,0.0,-0.152587890625,0.6103515625,3.414936065673828
210.77613830566406,-0.9850746393203735,-0.026659492403268814,0.03581413999199867,-0.16623656451702118,33.0,4.555387496948242,2.3351430892944336,0.0708007887005806,0.0493164137005806,0.9956055879592896,0.0,-0.457763671875,0.152587890625,3.415336847305298
210.82936096191406,-0.9850242137908936,-0.026798278093338013,0.036129266023635864,-0.1664448231458664,33.0,4.5941572189331055,2.3439507484436035,0.0717773512005806,0.0532226637005806,0.9956055879592896,0.0,-0.30517578125,0.30517578125,3.414936065673828
210.8816680908203,-0.9850195646286011,-0.027167266234755516,0.03670581057667732,-0.16628651320934296,33.0,4.665995121002197,2.375624179840088,0.0708007887005806,0.0585937574505806,0.9965821504592896,0.0,-0.30517578125,-0.457763671875,3.415036201477051
210.93409729003906,-0.9850266575813293,-0.0274038203060627,0.03739286959171295,-0.16605228185653687,33.0,4.747624397277832,2.39060115814209,0.0747070387005806,0.0488281324505806,0.9956055879592896,0.30517578125,-0.152587890625,-0.457763671875,3.415036201477051
210.9870147705078,-0.9850322008132935,-0.027586478739976883,0.03739959001541138,-0.16598725318908691,33.0,4.75169038772583,2.411491632461548,0.0732421949505806,0.0498046949505806,0.9970704317092896,0.0,-0.152587890625,0.0,3.4148354530334473
211.039794921875,-0.9849823713302612,-0.027492443099617958,0.03715519234538078,-0.16635341942310333,33.0,4.723158836364746,2.403676748275757,0.0712890699505806,0.0527343824505806,0.9965821504592896,0.30517578125,0.0,0.0,3.4144346714019775
211.09185791015625,-0.9849495887756348,-0.02789420820772648,0.037225328385829926,-0.16646519303321838,33.0,4.739005088806152,2.4473488330841064,0.0732421949505806,0.0551757887005806,0.9951173067092896,0.30517578125,0.0,0.30517578125,3.414334535598755
211.144775390625,-0.9849154949188232,-0.02783796936273575,0.037255752831697464,-0.16666904091835022,33.0,4.741880893707275,2.439418077468872,0.0693359449505806,0.0551757887005806,0.9980469942092896,0.0,-0.152587890625,-0.30517578125,3.4142343997955322
211.19700622558594,-0.9848429560661316,-0.027710268273949623,0.037330396473407745,-0.16710178554058075,33.0,4.748954772949219,2.421445369720459,0.0708007887005806,0.0537109449505806,0.9975587129592896,0.152587890625,-0.152587890625,-0.457763671875,3.414635181427002
211.2501220703125,-0.9848531484603882,-0.027668436989188194,0.03755294159054756,-0.16699852049350739,33.0,4.773068904876709,2.41298770904541,0.0742187574505806,0.0522461012005806,0.9956055879592896,0.0,-0.152587890625,-0.152587890625,3.4142343997955322
211.30233764648438,-0.98482346534729,-0.027611667290329933,0.03720405697822571,-0.167261004447937,33.0,4.733175277709961,2.411900520324707,0.0727539137005806,0.0478515699505806,0.9951173067092896,-0.152587890625,0.0,-0.152587890625,3.4147353172302246
211.35545349121094,-0.9848414063453674,-0.027969200164079666,0.03695959597826004,-0.16715028882026672,33.0,4.712090015411377,2.45758318901062,0.0747070387005806,0.0546875074505806,0.9975587129592896,-0.152587890625,-0.152587890625,-0.457763671875,3.414334535598755
211.40750122070312,-0.9848698973655701,-0.028170621022582054,0.03686552867293358,-0.16696926951408386,33.0,4.704843521118164,2.4830565452575684,0.0673828199505806,0.0541992262005806,0.9975587129592896,0.152587890625,0.0,-0.152587890625,3.414334535598755
211.46022033691406,-0.9848978519439697,-0.028412843123078346,0.03663000464439392,-0.16681498289108276,33.0,4.682436943054199,2.5156989097595215,0.0712890699505806,0.0507812574505806,0.9956055879592896,0.0,0.0,0.0,3.4144346714019775
211.51295471191406,-0.9848918914794922,-0.02839847281575203,0.03664547577500343,-0.16684937477111816,33.0,4.684000492095947,2.5136141777038574,0.0771484449505806,0.0498046949505806,0.9956055879592896,-0.30517578125,-0.457763671875,-0.457763671875,3.414033889770508
211.56593322753906,-0.9849290251731873,-0.028437001630663872,0.037014126777648926,-0.16654208302497864,33.0,4.725639343261719,2.5124831199645996,0.0722656324505806,0.0483398512005806,0.9980469942092896,-0.457763671875,-0.152587890625,-0.152587890625,3.413933753967285
211.61825561523438,-0.984929621219635,-0.02806250937283039,0.03689117729663849,-0.16662922501564026,33.0,4.704828262329102,2.4719467163085938,0.0673828199505806,0.0595703199505806,0.9975587129592896,-0.152587890625,0.0,-0.457763671875,3.414334535598755
211.67138671875,-0.9848957657814026,-0.028131961822509766,0.03662506863474846,-0.16687609255313873,33.0,4.676679611206055,2.4836719036102295,0.0717773512005806,0.0532226637005806,0.9970704317092896,0.0,0.457763671875,0.0,3.413933753967285
211.72340393066406,-0.9848787784576416,-0.028124216943979263,0.036497462540864944,-0.16700567305088043,33.0,4.662428855895996,2.4845948219299316,0.0708007887005806,0.0522461012005806,0.9965821504592896,0.0,0.152587890625,-0.457763671875,3.413933753967285
211.7764129638672,-0.984911322593689,-0.028544766828417778,0.03620745614171028,-0.16680492460727692,33.0,4.637143135070801,2.538687229156494,0.0659179762005806,0.0517578199505806,0.9970704317092896,0.0,0.0,0.0,3.4135329723358154
211.8283233642578,-0.9848821759223938,-0.028378592804074287,0.0361233651638031,-0.1670236587524414,33.0,4.625026702880859,2.520418882369995,0.0698242262005806,0.0532226637005806,0.9970704317092896,0.30517578125,0.0,0.152587890625,3.414033889770508
211.88111877441406,-0.9848412275314331,-0.028550023213028908,0.035885393619537354,-0.1672872006893158,33.0,4.602070331573486,2.543117046356201,0.0678711012005806,0.0532226637005806,0.9975587129592896,0.0,0.152587890625,0.0,3.414033889770508
211.9335174560547,-0.9847869873046875,-0.028438767418265343,0.03578336909413338,-0.16764673590660095,33.0,4.58933162689209,2.5307693481445312,0.0708007887005806,0.0522461012005806,0.9965821504592896,0.0,0.0,0.152587890625,3.4145348072052
211.98626708984375,-0.98471599817276,-0.02843462862074375,0.0356668196618557,-0.16808874905109406,33.0,4.577210903167725,2.530459403991699,0.0688476637005806,0.0527343824505806,0.9946290254592896,0.0,0.0,0.152587890625,3.4141340255737305
212.03880310058594,-0.9846387505531311,-0.028556980192661285,0.03572099283337593,-0.16850870847702026,33.0,4.586769104003906,2.5413293838500977,0.0703125074505806,0.0551757887005806,0.9980469942092896,0.152587890625,0.0,0.152587890625,3.414033889770508
212.09088134765625,-0.9846187233924866,-0.02872135303914547,0.03549617528915405,-0.16864514350891113,33.0,4.564874649047852,2.5636115074157715,0.0712890699505806,0.0498046949505806,0.9960938692092896,0.152587890625,-0.30517578125,0.30517578125,3.413933753967285
212.1438751220703,-0.9845752716064453,-0.02862442471086979,0.035638272762298584,-0.16888511180877686,33.0,4.579690933227539,2.548797369003296,0.0766601637005806,0.0493164137005806,0.9975587129592896,0.0,-0.30517578125,0.0,3.4138336181640625
212.19602966308594,-0.9844956398010254,-0.02843739092350006,0.03554873168468475,-0.16939890384674072,33.0,4.56727933883667,2.5269410610198975,0.0727539137005806,0.0488281324505806,0.9970704317092896,-0.152587890625,-0.152587890625,0.457763671875,3.414334535598755
212.2487335205078,-0.9843998551368713,-0.028360407799482346,0.03579992428421974,-0.16991443932056427,34.0,4.595495700836182,2.510986804962158,0.0727539137005806,0.0566406324505806,0.9970704317092896,0.0,-0.152587890625,0.152587890625,3.414334535598755
212.30178833007812,-0.9843338131904602,-0.02832009457051754,0.036063481122255325,-0.1702481508255005,34.0,4.625348091125488,2.499772071838379,0.0698242262005806,0.0527343824505806,0.9980469942092896,0.0,0.152587890625,0.0,3.4144346714019775
212.3536376953125,-0.9842655658721924,-0.028411082923412323,0.03603378310799599,-0.17063350975513458,34.0,4.624744415283203,2.5088367462158203,0.0722656324505806,0.0522461012005806,0.9960938692092896,0.0,-0.152587890625,0.30517578125,3.414334535598755
212.4062042236328,-0.9842119216918945,-0.02844454161822796,0.03617233410477638,-0.170907661318779,34.0,4.641752243041992,2.508650064468384,0.0698242262005806,0.0537109449505806,0.9980469942092896,0.152587890625,0.0,0.30517578125,3.414334535598755
212.4591827392578,-0.9841465950012207,-0.028530653566122055,0.03620119020342827,-0.1712627410888672,34.0,4.647602081298828,2.5161631107330322,0.0727539137005806,0.0551757887005806,0.9960938692092896,0.0,0.0,0.152587890625,3.413933753967285
212.51129150390625,-0.9841261506080627,-0.028646714985370636,0.03632272779941559,-0.17133508622646332,34.0,4.663791656494141,2.5266005992889404,0.0722656324505806,0.0517578199505806,0.9965821504592896,0.0,0.0,0.0,3.413933753967285
212.56417846679688,-0.9841007590293884,-0.028807664290070534,0.036042384803295135,-0.17151333391666412,34.0,4.635727882385254,2.5494320392608643,0.0722656324505806,0.0532226637005806,0.9965821504592896,0.0,0.0,0.0,3.4138336181640625
212.61599731445312,-0.9840905666351318,-0.028819480910897255,0.036161039024591446,-0.17154452204704285,34.0,4.649446964263916,2.5483145713806152,0.0722656324505806,0.0546875074505806,0.9956055879592896,0.0,0.0,0.0,3.4142343997955322
212.66917419433594,-0.9841092228889465,-0.029298633337020874,0.03620414808392525,-0.17134758830070496,34.0,4.663188457489014,2.602663993835449,0.0712890699505806,0.0522461012005806,0.9960938692092896,0.0,-0.152587890625,-0.30517578125,3.4138336181640625
212.7211456298828,-0.9841296672821045,-0.029510194435715675,0.036276958882808685,-0.17117835581302643,34.0,4.675106048583984,2.6260106563568115,0.0693359449505806,0.0561523512005806,0.9956055879592896,0.0,0.0,-0.30517578125,3.4138336181640625
212.77442932128906,-0.9841245412826538,-0.02943766489624977,0.03622879832983017,-0.17123031616210938,34.0,4.668383598327637,2.618485450744629,0.0698242262005806,0.0527343824505806,0.9956055879592896,0.0,0.0,0.0,3.41373348236084
212.8262176513672,-0.9841583371162415,-0.029736291617155075,0.036212872713804245,-0.1709880232810974,34.0,4.6717729568481445,2.653761863708496,0.0717773512005806,0.0546875074505806,0.9956055879592896,0.0,0.0,0.0,3.4141342639923096
212.8793487548828,-0.9841723442077637,-0.029867365956306458,0.03581751137971878,-0.17096766829490662,34.0,4.629602909088135,2.6763620376586914,0.0717773512005806,0.0551757887005806,0.9960938692092896,0.30517578125,0.152587890625,-0.30517578125,3.41373348236084
212.93124389648438,-0.9842076301574707,-0.030268970876932144,0.035558976233005524,-0.1707472801208496,34.0,4.607621669769287,2.7278811931610107,0.0786132887005806,0.0537109449505806,0.9980469942092896,0.152587890625,0.152587890625,0.152587890625,3.4141342639923096
212.98446655273438,-0.9841930270195007,-0.030391622334718704,0.03559347242116928,-0.17080265283584595,34.0,4.614066123962402,2.7408432960510254,0.0688476637005806,0.0517578199505806,0.9960938692092896,0.0,0.0,0.0,3.414034128189087
213.03646850585938,-0.9841699004173279,-0.0303566362708807,0.035500314086675644,-0.17096172273159027,34.0,4.603299617767334,2.7379391193389893,0.0722656324505806,0.0537109449505806,0.9970704317092896,0.0,0.152587890625,-0.152587890625,3.414034128189087
213.08946228027344,-0.9841724038124084,-0.030535465106368065,0.035517774522304535,-0.17091165482997894,34.0,4.608624458312988,2.7580864429473877,0.0712890699505806,0.0507812574505806,0.9956055879592896,0.0,0.152587890625,0.6103515625,3.4139339923858643
213.14151000976562,-0.9841280579566956,-0.030366340652108192,0.035158753395080566,-0.17127111554145813,34.0,4.5657572746276855,2.7442169189453125,0.0737304762005806,0.0600586012005806,0.9956055879592896,-0.152587890625,0.30517578125,0.457763671875,3.414335012435913
213.1944580078125,-0.9840313792228699,-0.03029528632760048,0.03528795391321182,-0.17181187868118286,34.0,4.580466270446777,2.731145143508911,0.0688476637005806,0.0537109449505806,0.9975587129592896,0.152587890625,0.152587890625,0.152587890625,3.4139339923858643
213.24667358398438,-0.9839858412742615,-0.030327392742037773,0.03497046232223511,-0.17213182151317596,34.0,4.546117782592773,2.739481210708618,0.0683593824505806,0.0522461012005806,0.9951173067092896,0.152587890625,0.6103515625,0.762939453125,3.414335012435913
213.29946899414062,-0.9839992523193359,-0.03062496706843376,0.034690335392951965,-0.17205877602100372,34.0,4.520116806030273,2.778968095779419,0.0717773512005806,0.0532226637005806,0.9980469942092896,0.0,0.152587890625,0.152587890625,3.4139339923858643
213.3515167236328,-0.9839869737625122,-0.03076489455997944,0.03440312296152115,-0.17216162383556366,34.0,4.490713596343994,2.7999372482299805,0.0693359449505806,0.0478515699505806,0.9980469942092896,-0.152587890625,0.30517578125,0.6103515625,3.414335012435913
213.40452575683594,-0.9839707612991333,-0.030735230073332787,0.033585261553525925,-0.17242100834846497,34.0,4.3984832763671875,2.8113701343536377,0.0712890699505806,0.0532226637005806,0.9951173067092896,-0.152587890625,0.0,0.30517578125,3.4138340950012207
213.4566650390625,-0.9839610457420349,-0.03083505481481552,0.0335819274187088,-0.17245890200138092,34.0,4.400181293487549,2.8225648403167725,0.0659179762005806,0.0561523512005806,0.9990235567092896,0.0,0.30517578125,0.457763671875,3.4142348766326904
213.50958251953125,-0.9839508533477783,-0.03104422241449356,0.0335388109087944,-0.1724882274866104,34.0,4.3995161056518555,2.8469512462615967,0.0683593824505806,0.0566406324505806,0.9941407442092896,0.0,0.152587890625,0.457763671875,3.4139339923858643
213.56163024902344,-0.9838788509368896,-0.031016869470477104,0.03368907794356346,-0.17287427186965942,34.0,4.417064666748047,2.8391847610473633,0.0678711012005806,0.0502929762005806,0.9980469942092896,0.152587890625,0.0,0.6103515625,3.4138340950012207
213.61459350585938,-0.9838163256645203,-0.031079258769750595,0.03380327671766281,-0.17319606244564056,34.0,4.432124614715576,2.842559337615967,0.0654296949505806,0.0541992262005806,0.9975587129592896,0.0,0.152587890625,0.91552734375,3.413733959197998
213.66661071777344,-0.9837549328804016,-0.03107139654457569,0.03352649509906769,-0.17359939217567444,34.0,4.401875019073486,2.845294237136841,0.0668945387005806,0.0561523512005806,0.9956055879592896,0.0,0.152587890625,0.762939453125,3.4141347408294678
213.71958923339844,-0.9836789965629578,-0.03112020716071129,0.03372916579246521,-0.17398150265216827,34.0,4.4268364906311035,2.845111846923828,0.0688476637005806,0.0566406324505806,0.9960938692092896,0.0,0.0,0.152587890625,3.413733959197998
213.7715606689453,-0.9836685061454773,-0.031257834285497665,0.033801596611738205,-0.17400206625461578,34.0,4.43781042098999,2.8591654300689697,0.0654296949505806,0.0546875074505806,0.9946290254592896,0.0,0.0,0.457763671875,3.4141347408294678
213.82447814941406,-0.9836689233779907,-0.03142095357179642,0.03351068124175072,-0.174026757478714,34.0,4.408273696899414,2.883247137069702,0.0698242262005806,0.0493164137005806,0.9990235567092896,0.0,-0.152587890625,-0.152587890625,3.413733959197998
213.876708984375,-0.9836928248405457,-0.03157035633921623,0.033432744443416595,-0.1738792210817337,34.0,4.402007579803467,2.902350902557373,0.0649414137005806,0.0532226637005806,0.9960938692092896,0.0,-0.30517578125,0.0,3.4141347408294678
213.92971801757812,-0.9836621284484863,-0.031318701803684235,0.03382067382335663,-0.17402340471744537,34.0,4.441236972808838,2.8655810356140137,0.0698242262005806,0.0527343824505806,0.9970704317092896,-0.30517578125,-0.152587890625,0.0,3.4136338233947754
213.98211669921875,-0.9836695790290833,-0.031247390434145927,0.03372009098529816,-0.17401382327079773,34.0,4.428433418273926,2.859537124633789,0.0703125074505806,0.0532226637005806,0.9921876192092896,-0.457763671875,-0.30517578125,0.0,3.4136338233947754
214.0343780517578,-0.9836856722831726,-0.03100878931581974,0.034050434827804565,-0.17390120029449463,34.0,4.460671424865723,2.826535940170288,0.0693359449505806,0.0595703199505806,0.9975587129592896,-0.457763671875,-0.457763671875,0.30517578125,3.4135336875915527
214.08767700195312,-0.9836483597755432,-0.030958306044340134,0.03445427864789963,-0.1740417182445526,34.0,4.505676746368408,2.8122220039367676,0.0668945387005806,0.0507812574505806,0.9990235567092896,-0.30517578125,-0.457763671875,0.152587890625,3.41343355178833
214.13995361328125,-0.9836113452911377,-0.03089248016476631,0.03447858989238739,-0.17425747215747833,34.0,4.50772762298584,2.8033039569854736,0.0683593824505806,0.0488281324505806,0.9980469942092896,0.0,-0.152587890625,0.762939453125,3.4138343334198
214.1929168701172,-0.983613133430481,-0.031169762834906578,0.0342923067510128,-0.1742345094680786,34.0,4.49214506149292,2.8384647369384766,0.0737304762005806,0.0493164137005806,0.9960938692092896,0.0,-0.30517578125,0.457763671875,3.41343355178833
214.24505615234375,-0.9835851192474365,-0.03118208236992359,0.03443850576877594,-0.1743617057800293,34.0,4.509266376495361,2.8363897800445557,0.0688476637005806,0.0517578199505806,0.9980469942092896,-0.152587890625,-0.457763671875,0.457763671875,3.4138343334198
214.297607421875,-0.9835261106491089,-0.030868440866470337,0.034802380949258804,-0.17467758059501648,34.0,4.545006275177002,2.792248249053955,0.0708007887005806,0.0571289137005806,0.9975587129592896,-0.30517578125,-0.457763671875,0.152587890625,3.413734197616577
214.35057067871094,-0.9835221767425537,-0.03095278888940811,0.034766897559165955,-0.17469242215156555,34.0,4.542725086212158,2.802426338195801,0.0693359449505806,0.0541992262005806,0.9970704317092896,-0.30517578125,-0.6103515625,-0.457763671875,3.4133334159851074
214.40304565429688,-0.983555257320404,-0.030822256579995155,0.03491334989666939,-0.17449963092803955,34.0,4.5561113357543945,2.7856507301330566,0.0717773512005806,0.0488281324505806,0.9951173067092896,-0.457763671875,-0.457763671875,0.0,3.4136340618133545
214.45578002929688,-0.983558177947998,-0.03066173568367958,0.035138245671987534,-0.17446640133857727,34.0,4.578213691711426,2.7631936073303223,0.0727539137005806,0.0502929762005806,0.9951173067092896,-0.30517578125,-0.6103515625,0.0,3.4136340618133545
214.50885009765625,-0.9835387468338013,-0.030515551567077637,0.03527875989675522,-0.17457333207130432,34.0,4.591466426849365,2.743372678756714,0.0747070387005806,0.0507812574505806,0.9985352754592896,-0.30517578125,-0.457763671875,0.6103515625,3.4132332801818848
214.56106567382812,-0.9835507273674011,-0.030628010630607605,0.035181235522031784,-0.17450593411922455,34.0,4.582507610321045,2.7583422660827637,0.0747070387005806,0.0551757887005806,0.9946290254592896,-0.30517578125,-0.6103515625,-0.152587890625,3.4136340618133545
214.6143035888672,-0.9835306406021118,-0.030315442010760307,0.03571049124002457,-0.17456573247909546,34.0,4.63620662689209,2.7122209072113037,0.0732421949505806,0.0502929762005806,0.9960938692092896,-0.30517578125,-0.457763671875,0.457763671875,3.4132332801818848
214.666259765625,-0.983532190322876,-0.030251365154981613,0.0355709046125412,-0.1745968461036682,34.0,4.6192522048950195,2.707584857940674,0.0747070387005806,0.0483398512005806,0.9990235567092896,-0.762939453125,-0.762939453125,0.457763671875,3.4136340618133545
214.71917724609375,-0.9834928512573242,-0.029910830780863762,0.03598685562610626,-0.17479218542575836,34.0,4.659959316253662,2.6598877906799316,0.0766601637005806,0.0576171949505806,0.9956055879592896,-0.457763671875,-0.30517578125,-0.152587890625,3.4136340618133545
214.77207946777344,-0.9835150837898254,-0.030075736343860626,0.03629029169678688,-0.17457538843154907,34.0,4.696928024291992,2.673574447631836,0.0766601637005806,0.0483398512005806,0.9970704317092896,-0.152587890625,-0.30517578125,0.0,3.413734197616577
214.8249969482422,-0.9834794402122498,-0.02963264472782612,0.0363960787653923,-0.17483003437519073,34.0,4.700714588165283,2.620115041732788,0.0771484449505806,0.0439453162252903,0.9941407442092896,-0.91552734375,-0.30517578125,1.373291015625,3.4133334159851074
214.876953125,-0.9833924770355225,-0.029201079159975052,0.0364064984023571,-0.17538881301879883,34.0,4.694730281829834,2.5683984756469727,0.0825195387005806,0.0463867224752903,0.9980469942092896,-0.6103515625,-0.152587890625,2.288818359375,3.413734197616577
214.92991638183594,-0.983177900314331,-0.02907065860927105,0.03674734756350517,-0.17653827369213104,34.0,4.733575344085693,2.5413200855255127,0.0756836012005806,0.0424804724752903,1.0000001192092896,0.0,0.0,3.35693359375,3.413734197616577
214.98243713378906,-0.9829545021057129,-0.02875029481947422,0.036628253757953644,-0.17785511910915375,34.0,4.717021465301514,2.5011370182037354,0.0786132887005806,0.0478515699505806,0.9956055879592896,-0.457763671875,0.152587890625,2.74658203125,3.414134979248047
215.035400390625,-0.982802152633667,-0.028901349753141403,0.0367545560002327,-0.17864418029785156,35.0,4.736363887786865,2.511866569519043,0.0751953199505806,0.0527343824505806,0.9970704317092896,-0.457763671875,0.0,1.220703125,3.413734197616577
215.0875701904297,-0.9827102422714233,-0.02870408445596695,0.036461200565099716,-0.17924094200134277,35.0,4.700746059417725,2.4926486015319824,0.0747070387005806,0.0556640699505806,0.9951173067092896,-0.6103515625,0.0,0.0,3.414134979248047
215.14056396484375,-0.982746958732605,-0.02867412008345127,0.036440636962652206,-0.17904871702194214,35.0,4.697324752807617,2.4905989170074463,0.0805664137005806,0.0463867224752903,0.9965821504592896,-0.762939453125,0.0,-0.6103515625,3.413734197616577
215.1927947998047,-0.9828090667724609,-0.028304481878876686,0.0365072637796402,-0.1787528693675995,35.0,4.696541786193848,2.4488627910614014,0.0839843824505806,0.0415039099752903,0.9931641817092896,-0.91552734375,-0.457763671875,-0.6103515625,3.414134979248047
215.24610900878906,-0.9828816056251526,-0.02772236242890358,0.0366864949464798,-0.17840805649757385,35.0,4.704038143157959,2.3810501098632812,0.0776367262005806,0.0327148474752903,0.9960938692092896,-1.220703125,0.0,0.762939453125,3.414134979248047
215.29873657226562,-0.9827939867973328,-0.026857463642954826,0.03700863569974899,-0.17895610630512238,35.0,4.7240214347839355,2.274073600769043,0.0747070387005806,0.0449218787252903,0.9946290254592896,-1.52587890625,-0.6103515625,0.0,3.4142351150512695
215.35098266601562,-0.9828022718429565,-0.02654348686337471,0.03768845275044441,-0.17881523072719574,35.0,4.793992519378662,2.225429058074951,0.0703125074505806,0.0366210974752903,0.9995118379592896,-1.52587890625,-0.91552734375,0.0,3.4142351150512695
215.40362548828125,-0.9828102588653564,-0.025842443108558655,0.03830134868621826,-0.1787431389093399,35.0,4.848667144775391,2.1340444087982178,0.0815429762005806,0.0439453162252903,0.9980469942092896,-1.678466796875,-0.457763671875,0.152587890625,3.414335250854492
215.45651245117188,-0.9827956557273865,-0.02544250711798668,0.03850126639008522,-0.17883791029453278,35.0,4.863254547119141,2.084280490875244,0.0747070387005806,0.0405273474752903,0.9916993379592896,-1.373291015625,-0.30517578125,-0.457763671875,3.4139344692230225
215.50881958007812,-0.9827996492385864,-0.024597683921456337,0.038573265075683594,-0.17891989648342133,35.0,4.854266166687012,1.986870527267456,0.0805664137005806,0.0327148474752903,0.9975587129592896,-2.13623046875,-0.457763671875,0.30517578125,3.414335250854492
215.5618896484375,-0.9827677607536316,-0.02347426488995552,0.03926022723317146,-0.17909616231918335,35.0,4.9091291427612305,1.844949722290039,0.0761718824505806,0.0307617224752903,0.9990235567092896,-2.593994140625,-0.762939453125,0.457763671875,3.4139344692230225
215.61415100097656,-0.9827189445495605,-0.022502463310956955,0.039523035287857056,-0.1794300526380539,35.0,4.919459819793701,1.728018045425415,0.0805664137005806,0.0371093787252903,0.9995118379592896,-2.288818359375,-0.91552734375,1.52587890625,3.4142351150512695
215.66726684570312,-0.9826409816741943,-0.02164393477141857,0.03995824232697487,-0.1798662394285202,35.0,4.951661109924316,1.6198325157165527,0.0698242262005806,0.0385742224752903,0.9965821504592896,-2.44140625,-0.152587890625,1.983642578125,3.4138343334198
215.71954345703125,-0.9824539422988892,-0.02043209969997406,0.0401795469224453,-0.1809762567281723,35.0,4.9533467292785645,1.4726686477661133,0.0722656324505806,0.0483398512005806,0.9912110567092896,-2.13623046875,0.0,0.6103515625,3.4142351150512695
215.7724609375,-0.9824843406677246,-0.019653016701340675,0.03969463333487511,-0.1810058355331421,35.0,4.882542133331299,1.394484281539917,0.0463867224752903,0.0400390662252903,0.9794923067092896,-1.983642578125,4.57763671875,0.762939453125,3.4138343334198
215.8247833251953,-0.9824972748756409,-0.020379915833473206,0.033675216138362885,-0.18207107484340668,35.0,4.220372676849365,1.5964324474334717,-0.0527343824505806,0.1479492336511612,0.9956055879592896,10.223388671875,17.7001953125,6.561279296875,3.4142351150512695
215.87744140625,-0.9807652235031128,-0.02904791384935379,0.021989498287439346,-0.19176079332828522,36.0,3.111175298690796,2.786623239517212,-0.02148437686264515,0.2026367485523224,1.0107423067092896,28.533935546875,22.735595703125,18.157958984375,3.4142351150512695
215.93084716796875,-0.9782655239105225,-0.040255606174468994,0.0138085400685668,-0.20293988287448883,37.0,2.484881639480591,4.199279308319092,0.0610351637005806,0.0878906324505806,1.0009766817092896,30.517578125,19.683837890625,23.040771484375,3.4142351150512695
215.9832763671875,-0.975300669670105,-0.052724264562129974,0.002070135436952114,-0.2144831269979477,39.0,1.5273964405059814,5.853912830352783,-0.0234375037252903,0.1479492336511612,1.0493165254592896,37.2314453125,28.076171875,21.05712890625,3.4142351150512695
216.03671264648438,-0.9721600413322449,-0.07104216516017914,-0.018230348825454712,-0.22254213690757751,40.0,-0.2192075550556183,8.409317016601562,-0.1049804836511612,0.2890625298023224,1.1293946504592896,61.798095703125,49.13330078125,4.425048828125,3.4142351150512695
216.08944702148438,-0.9696452021598816,-0.09798683971166611,-0.05488847941160202,-0.21719583868980408,40.0,-3.662550210952759,12.374798774719238,-0.3598633110523224,0.2792969048023224,1.1757813692092896,87.127685546875,82.550048828125,-46.844482421875,3.4142351150512695
216.14271545410156,-0.9614923596382141,-0.1311427652835846,-0.10380249470472336,-0.21807895600795746,41.0,-8.187421798706055,17.489023208618164,-0.4067383408546448,-0.005371094215661287,1.0429688692092896,96.893310546875,86.669921875,44.708251953125,3.4142351150512695
216.19618225097656,-0.9499958753585815,-0.15542446076869965,-0.14772331714630127,-0.22699867188930511,43.0,-12.128844261169434,21.75540542602539,0.0498046949505806,0.4653320908546448,0.9736329317092896,51.727294921875,83.0078125,-43.9453125,3.414335250854492
216.24964904785156,-0.9463240504264832,-0.1628054976463318,-0.1804540455341339,-0.2130749523639679,43.0,-15.792630195617676,23.586822509765625,-0.2919922173023224,0.1689453274011612,0.6767578721046448,29.9072265625,60.577392578125,-30.364990234375,3.4139344692230225
216.30242919921875,-0.94370436668396,-0.16544686257839203,-0.19845928251743317,-0.20654906332492828,43.0,-17.832059860229492,24.465526580810547,-0.1796875149011612,0.2905273735523224,0.5922852158546448,10.986328125,7.476806640625,-17.852783203125,3.414335250854492
216.35614013671875,-0.9475233554840088,-0.16230110824108124,-0.19664637744426727,-0.19284088909626007,41.0,-18.062694549560547,23.783771514892578,-0.2836914360523224,0.2421875298023224,0.5615234971046448,-19.683837890625,-31.43310546875,-36.62109375,3.4139344692230225
216.40911865234375,-0.9565333724021912,-0.14996249973773956,-0.17373809218406677,-0.17991630733013153,38.0,-16.165401458740234,21.333045959472656,-0.5898438096046448,0.2099609673023224,0.6279297471046448,-39.215087890625,-73.394775390625,-27.618408203125,3.4139344692230225
216.4630584716797,-0.9661588668823242,-0.13481338322162628,-0.137599915266037,-0.17154817283153534,36.0,-12.687464714050293,18.385799407958984,-0.6787109971046448,0.5014649033546448,0.8769532442092896,-33.111572265625,-63.018798828125,33.26416015625,3.4138343334198
216.51576232910156,-0.9601743221282959,-0.13454864919185638,-0.11000263690948486,-0.21877112984657288,41.0,-8.764452934265137,18.067228317260742,-0.3378906548023224,0.4858399033546448,1.4892579317092896,7.62939453125,-29.754638671875,160.369873046875,3.4138343334198
216.56982421875,-0.9486227035522461,-0.1401682198047638,-0.11195473372936249,-0.2606409192085266,46.0,-8.009568214416504,19.116395950317383,0.1416015774011612,-0.1704101711511612,0.4042969346046448,-16.632080078125,14.95361328125,-28.839111328125,3.41343355178833
216.62271118164062,-0.9466464519500732,-0.13497836887836456,-0.08659730851650238,-0.27953818440437317,48.0,-5.0767927169799805,17.768117904663086,0.3266601860523224,0.006835938431322575,1.4365235567092896,-43.64013671875,-87.738037109375,82.855224609375,3.4138343334198
216.67636108398438,-0.939277708530426,-0.1277593970298767,-0.05028577148914337,-0.3144931197166443,51.0,-0.8082243204116821,15.76302719116211,0.0263671912252903,0.5415039658546448,0.9672852754592896,-2.899169921875,-2.593994140625,175.628662109375,3.41343355178833
216.7289581298828,-0.919331967830658,-0.1277095526456833,-0.021916143596172333,-0.37153396010398865,58.0,3.129931926727295,14.564845085144043,0.1811523586511612,0.1533203274011612,1.0087891817092896,-36.62109375,-35.858154296875,56.15234375,3.4138343334198
216.7827911376953,-0.9137360453605652,-0.11556247621774673,0.001385487150400877,-0.3895251154899597,60.0,5.3109517097473145,12.181764602661133,0.1347656399011612,0.4794922471046448,0.8881837129592896,-43.3349609375,-25.32958984375,34.7900390625,3.41343355178833
216.83526611328125,-0.9081230163574219,-0.10373978316783905,0.020769502967596054,-0.40511634945869446,62.0,6.994605541229248,9.955045700073242,0.0742187574505806,0.1777343899011612,0.9228516817092896,-38.4521484375,-27.923583984375,64.239501953125,3.41343355178833
216.88897705078125,-0.8944876194000244,-0.09222323447465897,0.04223356023430824,-0.43543484807014465,65.0,8.967211723327637,7.457540988922119,0.1186523586511612,0.2290039360523224,0.9213868379592896,-38.4521484375,-25.177001953125,76.2939453125,3.4133334159851074
216.9416961669922,-0.8834728598594666,-0.08400742709636688,0.0583331324160099,-0.457180917263031,68.0,10.363042831420898,5.547798156738281,0.0751953199505806,0.1816406399011612,0.9711915254592896,-34.027099609375,-26.702880859375,52.032470703125,3.413734197616577
216.99537658691406,-0.8726316690444946,-0.07638882100582123,0.07470851391553879,-0.47654637694358826,71.0,11.723660469055176,3.6371662616729736,-0.02001953311264515,0.3046875298023224,1.0004884004592896,-19.22607421875,-13.275146484375,62.103271484375,3.4133334159851074
217.04812622070312,-0.8564188480377197,-0.07311004400253296,0.07574182748794556,-0.5054345726966858,75.0,11.749788284301758,2.848890781402588,0.1259765774011612,0.4531250596046448,0.9262696504592896,-2.13623046875,9.46044921875,83.31298828125,3.4133334159851074
217.10182189941406,-0.8433913588523865,-0.07102124392986298,0.0714145228266716,-0.5277745127677917,78.0,11.26968002319336,2.595767021179199,-0.0449218787252903,0.4287109971046448,1.2075196504592896,16.021728515625,17.242431640625,19.989013671875,3.4129326343536377
217.154541015625,-0.840049684047699,-0.07210136204957962,0.04306365177035332,-0.5359687805175781,79.0,8.60602855682373,4.34890079498291,-0.2832031548023224,0.4750977158546448,1.2128907442092896,65.765380859375,102.691650390625,22.735595703125,3.4133334159851074
217.2078857421875,-0.827303946018219,-0.07849907130002975,-0.04056677967309952,-0.554760217666626,82.0,1.1445139646530151,10.074586868286133,-0.3842774033546448,0.1054687649011612,1.2998048067092896,142.2119140625,160.5224609375,57.373046875,3.4130327701568604
217.26174926757812,-0.8000965118408203,-0.09589734673500061,-0.10517605394124985,-0.5827407836914062,87.0,-3.2409675121307373,16.050073623657227,0.0327148474752903,-0.3129883110523224,1.610351800918579,101.318359375,67.901611328125,198.66943359375,3.4133334159851074
217.31480407714844,-0.7524462342262268,-0.13447979092597961,-0.15432429313659668,-0.6260374188423157,94.0,-3.661555767059326,23.354114532470703,0.0288085974752903,0.8657227754592896,1.1445313692092896,154.11376953125,108.642578125,-45.928955078125,3.4130327701568604
217.36825561523438,-0.77567058801651,-0.13322924077510834,-0.2256181389093399,-0.5741785764694214,90.0,-11.362515449523926,28.364953994750977,0.007812500931322575,0.2167969048023224,0.7309570908546448,53.7109375,103.607177734375,-167.8466796875,3.4126319885253906
217.4210662841797,-0.7977293729782104,-0.11842846125364304,-0.274986207485199,-0.5234360694885254,86.0,-18.345703125,30.155954360961914,-0.1083984524011612,0.0693359449505806,0.5253906846046448,45.47119140625,41.19873046875,-100.09765625,3.4129326343536377
217.47479248046875,-0.8175622820854187,-0.11206169426441193,-0.294479101896286,-0.4819912314414978,81.0,-21.930675506591797,30.23489761352539,-0.0292968787252903,-0.0458984412252903,0.4165039658546448,7.476806640625,-10.07080078125,-84.991455078125,3.412531852722168
217.52755737304688,-0.8441958427429199,-0.10289544612169266,-0.2755257785320282,-0.44814175367355347,75.0,-21.899023056030273,26.96157455444336,-0.1274414211511612,0.1547851711511612,0.4741211533546448,-41.351318359375,-85.44921875,-61.187744140625,3.412832498550415
217.5817413330078,-0.8611021041870117,-0.10119150578975677,-0.23076480627059937,-0.44159993529319763,72.0,-17.941864013671875,23.416385650634766,-0.6284180283546448,0.7773438692092896,0.7705079317092896,-62.255859375,-138.092041015625,-12.054443359375,3.412832498550415
217.63467407226562,-0.8905030488967896,-0.08854659646749496,-0.1881948858499527,-0.40465548634529114,65.0,-15.278702735900879,18.745737075805664,-0.8056641817092896,0.2993164360523224,1.2460938692092896,-12.51220703125,-61.492919921875,-206.756591796875,3.412832498550415
217.68907165527344,-0.9009712934494019,-0.08996892720460892,-0.18218477070331573,-0.38336023688316345,63.0,-15.028855323791504,18.20949363708496,-0.5214844346046448,-0.4619141221046448,1.0566407442092896,-27.008056640625,-43.3349609375,205.6884765625,3.412832498550415
217.74229431152344,-0.8546175956726074,-0.12601254880428314,-0.17269903421401978,-0.47320619225502014,74.0,-10.132401466369629,22.63329315185547,1.530273675918579,0.4912109971046448,1.4082032442092896,-38.14697265625,-62.56103515625,-169.37255859375,3.412832498550415
217.79583740234375,-0.8686167001724243,-0.09249868988990784,-0.14655110239982605,-0.4641890823841095,72.0,-9.713388442993164,17.521446228027344,0.4697266221046448,-0.1791992336511612,0.6933594346046448,-65.61279296875,-87.738037109375,-14.95361328125,3.4132332801818848
217.849365234375,-0.8592879176139832,-0.06886488199234009,-0.10286831855773926,-0.4962851405143738,75.0,-6.225037097930908,12.812509536743164,-0.1411132961511612,0.2397461235523224,1.1992188692092896,-52.490234375,-46.234130859375,132.598876953125,3.4132332801818848
217.90333557128906,-0.8526620268821716,-0.05839961767196655,-0.06805645674467087,-0.5147084593772888,77.0,-3.206843376159668,9.78287124633789,0.0874023512005806,0.3867188096046448,0.9521485567092896,-64.544677734375,-36.468505859375,-11.138916015625,3.4132332801818848
217.95606994628906,-0.8644096255302429,-0.04532762989401817,-0.04682288318872452,-0.4985468089580536,74.0,-2.048898935317993,7.188267707824707,-0.005371094215661287,0.1396484524011612,0.8115235567092896,-54.62646484375,-46.539306640625,-38.909912109375,3.4132332801818848
218.0098114013672,-0.8696449995040894,-0.034029219299554825,-0.018791066482663155,-0.49214473366737366,73.0,0.04649481177330017,4.455371379852295,0.0400390662252903,0.2651367485523224,0.9755860567092896,-44.5556640625,-41.19873046875,1.678466796875,3.412832498550415
218.0623321533203,-0.8712235689163208,-0.028942640870809555,0.007711284793913364,-0.489969402551651,73.0,2.3955769538879395,2.4594337940216064,-0.0556640699505806,0.1064453274011612,0.9560548067092896,-31.280517578125,-52.947998046875,3.662109375,3.4132332801818848
218.11587524414062,-0.8661178946495056,-0.027784112840890884,0.03544950485229492,-0.4978058636188507,74.0,5.1100544929504395,0.7383288145065308,0.0,-0.01708984561264515,0.9277344942092896,-42.572021484375,-44.403076171875,15.411376953125,3.412832498550415
218.16842651367188,-0.8603432774543762,-0.017251158133149147,0.05904984846711159,-0.5059879422187805,75.0,6.838088512420654,-1.735679030418396,0.0273437537252903,0.1772461086511612,1.0039063692092896,-45.623779296875,-31.73828125,19.073486328125,3.4132332801818848
218.2221221923828,-0.8536936640739441,-0.0071038068272173405,0.07505074143409729,-0.5152900815010071,77.0,7.78532075881958,-3.7741427421569824,-0.01171875186264515,0.2602539360523224,0.9897462129592896,-38.604736328125,-9.918212890625,32.3486328125,3.412832498550415
218.27488708496094,-0.848190426826477,0.004792827647179365,0.07946782559156418,-0.5236743092536926,78.0,7.457337379455566,-5.286750793457031,0.1816406399011612,0.2968750298023224,1.1884766817092896,-19.378662109375,20.1416015625,-2.44140625,3.412832498550415
218.32821655273438,-0.8529331684112549,0.013058345764875412,0.06886047124862671,-0.5172924995422363,77.0,5.967066764831543,-5.395341873168945,0.01855468936264515,0.6479492783546448,1.2583009004592896,43.3349609375,55.389404296875,-42.877197265625,3.4130330085754395
218.3812255859375,-0.8635281920433044,0.0031360865104943514,0.005394062027335167,-0.5042616724967957,75.0,0.3525450527667999,-0.6220406889915466,-0.1865234524011612,0.1362304836511612,1.2421876192092896,136.566162109375,160.21728515625,-0.30517578125,3.4134340286254883
218.43482971191406,-0.8521037101745605,-0.032180026173591614,-0.0873146653175354,-0.5150337219238281,77.0,-6.641388416290283,8.381267547607422,0.2768554985523224,0.2602539360523224,1.2832032442092896,172.882080078125,43.182373046875,-56.915283203125,3.4130330085754395
218.4879150390625,-0.8518626689910889,-0.08493807911872864,-0.14441245794296265,-0.4962456226348877,76.0,-9.307841300964355,16.97069549560547,0.1157226711511612,0.5727539658546448,1.697754144668579,170.2880859375,-25.93994140625,64.39208984375,3.4133338928222656
218.5412139892578,-0.8799640536308289,-0.12305090576410294,-0.21081243455410004,-0.4075285792350769,67.0,-15.707186698913574,23.794084548950195,0.1269531399011612,-0.1718750149011612,1.2207032442092896,120.391845703125,96.588134765625,-249.0234375,3.4133338928222656
218.59494018554688,-0.8954418897628784,-0.1478574424982071,-0.2764969766139984,-0.31602299213409424,59.0,-23.685827255249023,28.68461799621582,0.1420898586511612,0.1796875149011612,0.8076173067092896,129.852294921875,68.9697265625,-147.857666015625,3.4137346744537354
218.6481475830078,-0.8986635208129883,-0.16013352572917938,-0.30984818935394287,-0.26599857211112976,55.0,-28.145219802856445,30.887367248535156,0.1103515774011612,-0.1840820461511612,0.4624024033546448,65.00244140625,12.8173828125,-81.787109375,3.4137346744537354
218.7016143798828,-0.9090143442153931,-0.16270864009857178,-0.31630587577819824,-0.21718396246433258,49.0,-30.29005241394043,30.11199378967285,0.0498046949505806,-0.1708984524011612,0.3251953423023224,-6.866455078125,-74.15771484375,-108.642578125,3.4143357276916504
218.75558471679688,-0.9352965354919434,-0.13852643966674805,-0.2705150842666626,-0.1812513917684555,42.0,-27.116897583007812,23.659526824951172,-0.1674804836511612,0.3232422173023224,0.1943359673023224,-107.574462890625,-181.427001953125,7.171630859375,3.4142355918884277
218.809326171875,-0.9684797525405884,-0.07638058066368103,-0.18382030725479126,-0.1497395932674408,34.0,-19.461788177490234,12.43301010131836,-0.9868165254592896,0.5698242783546448,1.2143555879592896,-156.402587890625,-21.66748046875,-408.02001953125,3.414135456085205
218.86245727539062,-0.9812068343162537,-0.04005654901266098,-0.18413959443569183,-0.04148039221763611,20.0,-20.979564666748047,5.77081823348999,-0.5986328721046448,-0.6552734971046448,0.6723633408546448,33.26416015625,67.138671875,183.868408203125,3.413834810256958
218.91552734375,-0.976872444152832,-0.05018533393740654,-0.1525326520204544,-0.14119234681129456,32.0,-16.489421844482422,8.463263511657715,-0.2998047173023224,0.6704102158546448,1.542968988418579,42.1142578125,37.841796875,72.32666015625,3.4142355918884277
218.9687957763672,-0.9718198180198669,-0.06605125963687897,-0.1593799591064453,-0.16062775254249573,34.0,-16.771636962890625,10.810418128967285,0.8242188692092896,0.1191406399011612,0.8662110567092896,-90.789794921875,-64.544677734375,-93.68896484375,3.4142355918884277
219.0224151611328,-0.976799726486206,-0.039008401334285736,-0.15166924893856049,-0.1460728943347931,32.0,-16.553159713745117,7.222738265991211,0.1552734524011612,-0.1230468899011612,1.4140626192092896,-41.351318359375,-59.661865234375,-70.953369140625,3.4146363735198975
219.07557678222656,-0.9834932684898376,-0.02402592822909355,-0.13587604463100433,-0.11704938113689423,28.0,-15.167510032653809,4.698987007141113,-0.0410156287252903,0.1596679836511612,0.9765626192092896,-10.223388671875,-58.746337890625,-105.743408203125,3.4146363735198975
219.1294403076172,-0.9913949370384216,-0.010854968801140785,-0.1056164801120758,-0.07657098770141602,23.0,-11.990700721740723,2.2086291313171387,-0.1533203274011612,-0.1928711235523224,0.9140626192092896,-32.501220703125,-61.798095703125,-35.858154296875,3.415037155151367
219.18341064453125,-0.9955101609230042,0.011824874207377434,-0.0759999081492424,-0.0551639087498188,20.0,-8.77890396118164,-0.8788580894470215,-0.0654296949505806,0.2275390923023224,0.9052735567092896,-45.928955078125,-61.95068359375,-34.942626953125,3.415037155151367
219.2368621826172,-0.9978047013282776,0.032997921109199524,-0.04048511013388634,-0.040714237838983536,19.0,-4.788592338562012,-3.5990195274353027,0.01562500186264515,0.1748047024011612,0.8710938692092896,-40.283203125,-84.8388671875,-25.787353515625,3.415037155151367
219.2896728515625,-0.9977169036865234,0.053520567715168,-0.0022494210861623287,-0.04112726449966431,19.0,-0.5094166398048401,-6.120275974273682,-0.01513672061264515,0.1367187649011612,0.9956055879592896,-53.863525390625,-67.291259765625,15.56396484375,3.415037155151367
219.34274291992188,-0.996141254901886,0.07548102736473083,0.015751605853438377,-0.0419071763753891,19.0,1.4357106685638428,-8.728211402893066,-0.1328125149011612,0.2597656548023224,0.9291993379592896,-53.40576171875,-27.77099609375,-51.116943359375,3.4153378009796143
219.396240234375,-0.9950567483901978,0.09164512902498245,0.0270471703261137,-0.027047039940953255,17.0,2.801130771636963,-10.606756210327148,-0.0019531252328306437,0.2587890923023224,1.0083009004592896,-20.1416015625,-12.20703125,-4.8828125,3.415437936782837
219.4496307373047,-0.9945757985115051,0.09910613298416138,0.026239601895213127,-0.017542194575071335,16.0,2.7924106121063232,-11.437172889709473,0.2060547173023224,0.2465820610523224,1.4091798067092896,-10.986328125,31.43310546875,-58.135986328125,3.415738821029663
219.50282287597656,-0.9958345890045166,0.08994940668344498,0.008044721558690071,0.01254524290561676,13.0,1.0473849773406982,-10.310214042663574,-0.3344726860523224,0.3730469048023224,1.3398438692092896,77.972412109375,86.517333984375,-66.22314453125,3.416139602661133
219.55616760253906,-0.9968910217285156,0.03854692727327347,-0.05214962363243103,0.044748060405254364,9.0,-5.769413948059082,-4.699881553649902,-0.3007812798023224,0.0517578199505806,1.0229493379592896,134.8876953125,152.587890625,-5.645751953125,3.416139602661133
219.6091766357422,-0.9913936853408813,-0.02642940916121006,-0.09646803885698318,0.08445900678634644,5.0,-11.287956237792969,2.1101651191711426,0.5908203721046448,0.3461914360523224,1.2939454317092896,126.03759765625,69.732666015625,-140.07568359375,3.4165403842926025
219.66250610351562,-0.9794937372207642,-0.08661660552024841,-0.10928666591644287,0.14541587233543396,-2.0,-13.844171524047852,8.164902687072754,0.1083984524011612,0.9375001192092896,1.509765863418579,215.14892578125,-44.708251953125,-123.748779296875,3.4165403842926025
219.7158966064453,-0.960444450378418,-0.13391700387001038,-0.10334070026874542,0.2212076187133789,-10.0,-14.93677043914795,12.645453453063965,0.4091797471046448,-0.0800781324505806,1.2470704317092896,106.201171875,36.0107421875,-177.154541015625,3.4168410301208496
219.76901245117188,-0.9288843274116516,-0.18574005365371704,-0.10688827931880951,0.3020751476287842,-19.0,-18.106761932373047,17.163475036621094,0.0297851599752903,0.1420898586511612,0.7211914658546448,122.37548828125,-3.0517578125,-204.315185546875,3.4168410301208496
219.82278442382812,-0.8885268568992615,-0.21450474858283997,-0.1041218638420105,0.3920018970966339,-30.0,-20.683332443237305,18.674551010131836,0.02294922061264515,-0.3012695610523224,0.5703125596046448,51.727294921875,-40.8935546875,-138.092041015625,3.4172418117523193
219.8759002685547,-0.8692305684089661,-0.20540878176689148,-0.08305643498897552,0.44197991490364075,-37.0,-19.023958206176758,17.4615535736084,-0.1318359524011612,-0.3564453423023224,0.4125977158546448,-29.9072265625,-92.315673828125,-69.88525390625,3.4172418117523193
219.93011474609375,-0.8650858998298645,-0.1488572061061859,-0.05641788989305496,0.47569379210472107,-42.0,-13.84130859375,12.120620727539062,-0.5512695908546448,0.2690429985523224,0.6635742783546448,-119.62890625,-119.0185546875,-100.7080078125,3.4169411659240723
219.9838409423828,-0.8246991634368896,-0.10678395628929138,-0.054981112480163574,0.5526705980300903,-53.0,-12.047261238098145,6.774056434631348,-0.6220703721046448,1.4082032442092896,2.089843988418579,62.8662109375,-8.544921875,-100.860595703125,3.4169411659240723
220.03741455078125,-0.8337494730949402,-0.12604551017284393,-0.05093070864677429,0.535145103931427,-50.0,-12.699176788330078,9.18215274810791,0.3041992485523224,0.0810546949505806,0.6977539658546448,-20.904541015625,-106.8115234375,290.069580078125,3.417341947555542
220.09063720703125,-0.8518800735473633,-0.09913560748100281,-0.023396460339426994,0.5137351155281067,-48.0,-8.147436141967773,8.414963722229004,0.0678711012005806,0.4790039658546448,1.628418207168579,-22.735595703125,-42.877197265625,-210.26611328125,3.417341947555542
220.14418029785156,-0.851494550704956,-0.07374247163534164,-0.003832596354186535,0.5191376805305481,-48.0,-4.766308307647705,7.009006500244141,-0.1044922024011612,-0.7221680283546448,0.0952148586511612,-84.8388671875,24.4140625,-17.242431640625,3.4177427291870117
220.197265625,-0.8462236523628235,-0.024488532915711403,-0.00196255324408412,0.5322611331939697,-50.0,-1.6841715574264526,2.256511926651001,0.5878906846046448,-0.0014648439828306437,1.1904298067092896,-60.882568359375,-68.9697265625,97.198486328125,3.4177427291870117
220.2506103515625,-0.8566331267356873,0.006308241747319698,0.005744253285229206,0.5158548951148987,-48.0,0.9368111491203308,-0.2797163128852844,-0.4399414658546448,0.2998047173023224,1.0634766817092896,-15.56396484375,-38.604736328125,-9.613037109375,3.4181437492370605
220.3036346435547,-0.8665586113929749,0.013944441452622414,0.021777186542749405,0.498404860496521,-46.0,2.9602067470550537,-0.14111542701721191,-0.004882812965661287,0.1977539360523224,0.8403321504592896,6.256103515625,-32.196044921875,83.0078125,3.4181437492370605
220.3567352294922,-0.8751271963119507,0.02240506000816822,0.030859943479299545,0.48238781094551086,-44.0,4.337341785430908,-0.5425277352333069,0.0825195387005806,0.1718750149011612,0.9614259004592896,-21.514892578125,-33.87451171875,2.44140625,3.4181437492370605
220.40928649902344,-0.8742473125457764,0.03938685357570648,0.04138174653053284,0.48210811614990234,-44.0,6.334523677825928,-1.6701033115386963,0.02197265811264515,0.0708007887005806,0.9101563692092896,-25.482177734375,-39.825439453125,-2.74658203125,3.4181437492370605
220.4621124267578,-0.8721222281455994,0.06137466058135033,0.052176494151353836,0.4826106131076813,-44.0,8.641338348388672,-3.287229537963867,0.0566406324505806,0.0620117262005806,0.9814454317092896,-38.4521484375,-42.572021484375,14.34326171875,3.418243885040283
220.51515197753906,-0.8746643662452698,0.08153393864631653,0.05756787210702896,0.4743415415287018,-42.0,10.256489753723145,-5.1316986083984375,-0.0864257887005806,0.2187500298023224,0.9667969942092896,-29.9072265625,-15.56396484375,41.19873046875,3.418243885040283
220.56842041015625,-0.8795047998428345,0.08662329614162445,0.056297194212675095,0.4645411968231201,-41.0,10.341073989868164,-5.838150501251221,0.3203125298023224,0.2866211235523224,1.0517579317092896,-16.4794921875,0.152587890625,-10.833740234375,3.418644666671753
220.62147521972656,-0.8735503554344177,0.08771628141403198,0.053578440099954605,0.4757561683654785,-43.0,10.199145317077637,-5.964411735534668,0.0810546949505806,0.2695312798023224,1.2167969942092896,-3.0517578125,28.228759765625,-18.768310546875,3.4187448024749756
220.67445373535156,-0.8708860278129578,0.07192777842283249,0.04486178234219551,0.4841190278530121,-44.0,8.498424530029297,-4.7468581199646,-0.1904297173023224,0.3618164360523224,1.4008790254592896,72.6318359375,87.890625,9.002685546875,3.4187448024749756
220.7274169921875,-0.8752042055130005,0.005392406135797501,0.01815122738480568,0.48338228464126587,-44.0,2.119582176208496,0.46493786573410034,-0.3901367783546448,-0.0922851637005806,1.0620118379592896,124.053955078125,156.097412109375,44.86083984375,3.4187448024749756
220.78073120117188,-0.8763558864593506,-0.07376153022050858,0.0005102552240714431,0.47598257660865784,-43.0,-3.975165367126465,7.474295616149902,0.5151367783546448,0.1010742336511612,1.1123048067092896,114.1357421875,79.65087890625,-43.64013671875,3.418644666671753
220.8336181640625,-0.8644629716873169,-0.13296490907669067,0.002671345602720976,0.4847849905490875,-44.0,-7.140346527099609,13.549992561340332,-0.0629882887005806,0.9838868379592896,1.4536134004592896,170.440673828125,-4.2724609375,48.52294921875,3.4184443950653076
220.8874969482422,-0.830055832862854,-0.1895877569913864,0.0259978286921978,0.5238200426101685,-49.0,-8.943501472473145,20.25398063659668,0.3559570610523224,-0.1166992336511612,1.0136719942092896,81.787109375,46.38671875,-167.694091796875,3.4181437492370605
220.94044494628906,-0.7929652333259583,-0.2250978946685791,0.026776032522320747,0.565526008605957,-54.0,-12.24735164642334,23.346715927124023,-0.0659179762005806,0.0415039099752903,0.5888672471046448,84.8388671875,-16.326904296875,-123.138427734375,3.418644666671753
220.9936981201172,-0.7510009407997131,-0.24486452341079712,0.04315943270921707,0.6116992831230164,-61.0,-13.576376914978027,25.63764762878418,0.0854492262005806,-0.1972656548023224,0.5791016221046448,20.44677734375,-55.999755859375,-83.160400390625,3.4189453125
221.0472869873047,-0.7254835367202759,-0.22557616233825684,0.05254211649298668,0.648095428943634,-67.0,-12.483173370361328,23.89002799987793,-0.0922851637005806,-0.3339844048023224,0.3964844346046448,-70.037841796875,-84.228515625,-61.95068359375,3.4188451766967773
221.10084533691406,-0.7137258052825928,-0.16268624365329742,0.0473211444914341,0.6796239018440247,-72.0,-8.834582328796387,17.464128494262695,-0.6474609971046448,0.3681640923023224,1.1840821504592896,-120.697021484375,-73.699951171875,-100.860595703125,3.4188451766967773
221.15472412109375,-0.6847986578941345,-0.15456154942512512,0.04751305282115936,0.7105658054351807,-77.0,-8.892354965209961,16.415815353393555,-0.4555664658546448,0.8481446504592896,1.2875977754592896,55.84716796875,29.296875,9.613037109375,3.4188451766967773
221.20779418945312,-0.7258492112159729,-0.15561342239379883,0.06596347689628601,0.6667647361755371,-70.0,-6.4165520668029785,18.41194725036621,0.4887695908546448,0.1728515774011612,1.1816407442092896,-59.2041015625,-109.55810546875,170.2880859375,3.4188451766967773
221.26121520996094,-0.6805044412612915,-0.1313125193119049,0.05915049836039543,0.7184508442878723,-78.0,-6.210343837738037,15.382865905761719,0.8857423067092896,0.1269531399011612,1.551758050918579,-8.544921875,-49.4384765625,-25.634765625,3.4188451766967773
221.315185546875,-0.6910502910614014,-0.10327756404876709,0.07195918262004852,0.7117617726325989,-77.0,-2.7262001037597656,14.208632469177246,-0.0629882887005806,-0.8149415254592896,0.5634766221046448,-84.228515625,-50.201416015625,-47.91259765625,3.4185445308685303
221.36831665039062,-0.7216686010360718,-0.06109006702899933,0.07275281101465225,0.6856887936592102,-73.0,1.2164400815963745,10.83536434173584,0.6235352158546448,0.2480469048023224,1.2485352754592896,-72.93701171875,-51.116943359375,-18.310546875,3.4189453125
221.42137145996094,-0.7292200326919556,-0.026289990171790123,0.07037100940942764,0.6801425814628601,-72.0,3.834230661392212,7.722070217132568,-0.2392578423023224,0.1992187798023224,0.9340821504592896,-29.144287109375,-41.656494140625,47.91259765625,3.4189453125
221.47488403320312,-0.7489150166511536,-0.008005153387784958,0.0841498002409935,0.6572522521018982,-69.0,6.633577823638916,7.090218544006348,-0.0927734449505806,0.2133789360523224,0.9448243379592896,1.52587890625,-30.21240234375,87.127685546875,3.4185445308685303
221.52706909179688,-0.7696992754936218,0.0035220501013100147,0.08826038986444473,0.6322663426399231,-65.0,8.066460609436035,6.156665325164795,0.1723632961511612,0.1162109524011612,0.9521485567092896,-25.787353515625,-14.95361328125,60.72998046875,3.4185445308685303
221.5804901123047,-0.7791103720664978,0.021134519949555397,0.08735358715057373,0.6204095482826233,-63.0,9.342761993408203,4.38582181930542,0.1181640774011612,0.1469726711511612,0.9067384004592896,-29.60205078125,-34.1796875,15.411376953125,3.4185445308685303
221.6331329345703,-0.7816705703735352,0.03803615644574165,0.09149442613124847,0.6157703995704651,-63.0,10.945786476135254,3.107051372528076,-0.1396484524011612,0.0927734449505806,0.9331055879592896,-30.670166015625,-31.1279296875,23.040771484375,3.4185445308685303
221.68661499023438,-0.7911074161529541,0.052715055644512177,0.08854028582572937,0.602934718132019,-61.0,11.750905990600586,1.367297649383545,0.0771484449505806,0.3715820610523224,0.9252930879592896,-13.885498046875,10.68115234375,40.8935546875,3.4181437492370605
221.73883056640625,-0.7970284819602966,0.04267169162631035,0.08357907086610794,0.5966054797172546,-60.0,10.61135482788086,1.8485709428787231,-0.0502929762005806,0.4550781846046448,1.2983399629592896,33.87451171875,25.482177734375,-11.444091796875,3.4181437492370605
221.7922821044922,-0.7910763025283813,-0.002343278843909502,0.07962425798177719,0.6065084338188171,-61.0,7.073083877563477,5.800334453582764,-0.3706054985523224,0.4345703721046448,1.3022462129592896,111.38916015625,113.372802734375,-23.49853515625,3.4181437492370605
221.8450927734375,-0.7824382185935974,-0.09997449070215225,0.05708744376897812,0.6119937300682068,-62.0,-1.8929804563522339,13.08790397644043,-0.4912109971046448,-0.4790039658546448,1.523926019668579,139.617919921875,160.369873046875,-70.343017578125,3.418243885040283
221.89927673339844,-0.78061443567276,-0.17114600539207458,0.04823712259531021,0.5991854071617126,-60.0,-7.4572954177856445,19.133872985839844,0.6962891221046448,-0.1674804836511612,1.622070550918579,44.5556640625,47.30224609375,221.25244140625,3.4178428649902344
221.9522247314453,-0.7974522709846497,-0.22040815651416779,0.06728656589984894,0.5576398372650146,-54.0,-7.961119651794434,25.513561248779297,-0.0610351637005806,0.9985352754592896,1.1455079317092896,125.274658203125,59.661865234375,-172.882080078125,3.4178428649902344
222.00547790527344,-0.7297332882881165,-0.2720468044281006,0.04623107612133026,0.625573456287384,-63.0,-15.836774826049805,28.21832275390625,0.1005859524011612,-0.4038086533546448,0.6162109971046448,34.7900390625,60.882568359375,-132.598876953125,3.4178428649902344
222.05911254882812,-0.7006267309188843,-0.2944900095462799,0.040929220616817474,0.6486313939094543,-67.0,-18.94611167907715,29.50033950805664,-0.1206054836511612,0.0849609449505806,0.4438477158546448,31.43310546875,-24.4140625,-43.02978515625,3.4178428649902344
222.11239624023438,-0.683826744556427,-0.2885260283946991,0.04961429536342621,0.6683347225189209,-70.0,-18.530458450317383,29.08622169494629,-0.01660156436264515,-0.2563476860523224,0.3481445610523224,-36.163330078125,-46.234130859375,-25.93994140625,3.4178428649902344
222.1660919189453,-0.6867431402206421,-0.2476094663143158,0.04455843195319176,0.6819735765457153,-72.0,-16.05296516418457,24.653453826904297,0.0375976599752903,-0.3027344048023224,0.5566406846046448,-119.62890625,-86.822509765625,-1.983642578125,3.4178428649902344
222.21987915039062,-0.6939007043838501,-0.1888236552476883,0.04219278693199158,0.6935896873474121,-74.0,-11.73451042175293,19.11236572265625,-1.700195550918579,1.2880860567092896,2.014648675918579,10.07080078125,-37.994384765625,44.5556640625,3.4178428649902344
222.2733154296875,-0.7026495933532715,-0.2158002406358719,0.07276228070259094,0.6741060614585876,-71.0,-10.876443862915039,24.123506546020508,-0.4516602158546448,0.6235352158546448,0.4477539658546448,49.591064453125,-29.296875,18.768310546875,3.4178428649902344
222.3271484375,-0.73557049036026,-0.1936316043138504,0.09539718925952911,0.6421384811401367,-67.0,-6.219281196594238,24.19150161743164,-0.2231445610523224,-0.3720703423023224,2.493652582168579,-67.7490234375,0.30517578125,-98.2666015625,3.4174420833587646
222.3798065185547,-0.699090301990509,-0.1907043159008026,0.08746039122343063,0.6835607290267944,-73.0,-7.957038402557373,22.952171325683594,0.5458984971046448,-0.2583008110523224,0.3334961235523224,28.839111328125,-80.108642578125,-18.463134765625,3.417341947555542
222.4330291748047,-0.7350971698760986,-0.17915351688861847,0.08206598460674286,0.6486912369728088,-68.0,-6.417801856994629,21.851009368896484,1.1362305879592896,-0.6230469346046448,1.0253907442092896,5.035400390625,-97.65625,374.298095703125,3.4174420833587646
222.4871063232422,-0.7789401412010193,-0.16194301843643188,0.10283221304416656,0.5970360636711121,-61.0,-1.9009274244308472,22.041837692260742,0.1425781399011612,0.4838867783546448,0.8461915254592896,-27.008056640625,-47.760009765625,-81.329345703125,3.4174420833587646
222.53994750976562,-0.829728901386261,-0.14302538335323334,0.1289253830909729,0.5238991975784302,-51.0,3.6742875576019287,21.91311264038086,0.2094726860523224,0.5986328721046448,0.9941407442092896,-22.27783203125,-9.1552734375,20.44677734375,3.4174420833587646
222.59332275390625,-0.8450818657875061,-0.1340188980102539,0.13400468230247498,0.4999174177646637,-48.0,5.307048797607422,21.226070404052734,0.0449218787252903,0.0805664137005806,1.0063477754592896,-10.3759765625,-0.30517578125,103.759765625,3.417041301727295
222.6460418701172,-0.8678259253501892,-0.12710098922252655,0.1380801498889923,0.4600609242916107,-43.0,7.048569202423096,20.50575828552246,-0.0009765626164153218,0.2104492485523224,0.9301759004592896,7.9345703125,16.4794921875,111.541748046875,3.417041301727295
222.69935607910156,-0.8930168747901917,-0.1330646574497223,0.14043396711349487,0.4063158929347992,-36.0,8.203374862670898,20.81893539428711,-0.0668945387005806,0.1679687649011612,0.8647462129592896,39.0625,54.01611328125,149.993896484375,3.416640520095825
222.751708984375,-0.9219542741775513,-0.15759415924549103,0.12681446969509125,0.3302760720252991,-27.0,7.454285621643066,22.181861877441406,0.1010742336511612,0.1870117336511612,1.0156251192092896,64.239501953125,120.849609375,182.342529296875,3.416640520095825
222.80528259277344,-0.9487311840057373,-0.19308112561702728,0.09826996922492981,0.23015421628952026,-14.0,5.600218296051025,24.42948341369629,0.0395507849752903,0.1264648586511612,1.4951173067092896,64.39208984375,125.42724609375,209.503173828125,3.416640520095825
222.85816955566406,-0.9660031795501709,-0.22091734409332275,0.06078919768333435,0.1197405755519867,-1.0,3.7004177570343018,26.250328063964844,-0.2241211235523224,-0.1821289211511612,1.2436524629592896,39.0625,138.397216796875,200.1953125,3.416640520095825
222.91224670410156,-0.9726824164390564,-0.23129220306873322,0.017274703830480576,0.009624145925045013,13.0,1.6706162691116333,26.774003982543945,-0.0576171949505806,0.01220703311264515,1.0810548067092896,-4.119873046875,147.857666015625,202.789306640625,3.416339874267578
222.96485900878906,-0.9719216227531433,-0.2228964865207672,-0.028852535411715508,-0.0696619302034378,23.0,-1.4342634677886963,25.940202713012695,0.1484375149011612,-0.0874023512005806,0.7763673067092896,-50.048828125,169.37255859375,177.764892578125,3.416339874267578
223.0186004638672,-0.965325653553009,-0.19275571405887604,-0.08586308360099792,-0.1536814272403717,33.0,-6.115077972412109,23.629220962524414,0.1181640774011612,0.8911134004592896,0.8491212129592896,-67.44384765625,150.909423828125,86.36474609375,3.416339874267578
223.0714569091797,-0.9608209133148193,-0.1450328230857849,-0.13808761537075043,-0.19162385165691376,39.0,-12.10895824432373,19.82628631591797,-0.1069336086511612,0.1010742336511612,0.6865234971046448,-105.438232421875,100.250244140625,21.209716796875,3.416339874267578
223.12478637695312,-0.9549897313117981,-0.08745422959327698,-0.17152835428714752,-0.22566479444503784,43.0,-16.746931076049805,14.7901029586792,-0.4902344346046448,0.02099609561264515,0.8535157442092896,-125.42724609375,71.10595703125,69.27490234375,3.416339874267578
223.17843627929688,-0.9456626772880554,-0.030539723113179207,-0.18727362155914307,-0.26404207944869995,47.0,-19.759197235107422,9.581912994384766,-0.2802734673023224,0.1591797024011612,0.8115235567092896,-115.966796875,58.441162109375,36.31591796875,3.4161391258239746
223.23204040527344,-0.9348614811897278,0.021269122138619423,-0.1915593296289444,-0.29813846945762634,50.0,-21.767749786376953,4.59843635559082,-0.6293945908546448,0.1894531548023224,0.7832032442092896,-98.2666015625,32.501220703125,80.718994140625,3.415738344192505
223.28460693359375,-0.9161710739135742,0.05341445654630661,-0.20392200350761414,-0.34087106585502625,55.0,-24.209217071533203,2.5858612060546875,-0.6738281846046448,0.3315429985523224,0.6108399033546448,-56.15234375,35.552978515625,76.2939453125,3.415738344192505
223.3381805419922,-0.9023100733757019,0.06159857660531998,-0.20386387407779694,-0.3748078942298889,60.0,-24.46089744567871,2.6230740547180176,-0.8935548067092896,0.3144531548023224,0.4277344346046448,-18.463134765625,-30.21240234375,81.024169921875,3.415738344192505
223.39170837402344,-0.8882984519004822,0.04808555543422699,-0.175882026553154,-0.4215191900730133,66.0,-20.67149543762207,3.851526975631714,-0.6166992783546448,-0.0781250074505806,0.8144532442092896,-25.93994140625,-143.890380859375,73.54736328125,3.415738344192505
223.44552612304688,-0.89300537109375,0.01620263233780861,-0.14297838509082794,-0.42642220854759216,66.0,-15.615433692932129,5.541369915008545,1.2358399629592896,0.3681640923023224,0.7504884004592896,-8.697509765625,-10.3759765625,46.234130859375,3.4156382083892822
223.49835205078125,-0.8607543706893921,0.0029465709812939167,-0.1055338978767395,-0.4979516565799713,75.0,-10.638513565063477,5.841589450836182,0.1870117336511612,-0.2177734673023224,0.9614259004592896,-14.0380859375,-123.748779296875,313.262939453125,3.4156382083892822
223.5522918701172,-0.7979003190994263,-0.025031790137290955,-0.04912252724170685,-0.600262463092804,88.0,-2.7706704139709473,5.683568477630615,0.2460937798023224,0.3652344048023224,1.502441644668579,-27.313232421875,-107.574462890625,192.718505859375,3.4152374267578125
223.6053924560547,-0.7393724918365479,-0.022570941597223282,-0.015496274456381798,-0.672739565372467,99.0,0.42706912755966187,3.1085662841796875,-0.1430664211511612,0.3027344048023224,0.9848634004592896,-65.765380859375,-43.9453125,137.02392578125,3.4156382083892822
223.65919494628906,-0.713309109210968,-0.028285428881645203,0.026032036170363426,-0.6997936964035034,103.0,4.400383949279785,0.2251722812652588,0.1396484524011612,0.3740234673023224,0.8491212129592896,-40.8935546875,-81.329345703125,99.334716796875,3.4152374267578125
223.71246337890625,-0.6856198906898499,-0.03655529022216797,0.057698264718055725,-0.7247480750083923,107.0,7.591243743896484,-1.9371737241744995,0.0600586012005806,0.3051758110523224,0.9199219942092896,-42.877197265625,-55.694580078125,52.79541015625,3.4148366451263428
223.76512145996094,-0.6609915494918823,-0.040832389146089554,0.09309042990207672,-0.743475615978241,111.0,10.589997291564941,-4.928037166595459,0.02001953311264515,0.1762695461511612,0.9311524629592896,-41.961669921875,-54.62646484375,95.21484375,3.4148366451263428
223.8182830810547,-0.6222650408744812,-0.039293207228183746,0.12215852737426758,-0.7722168564796448,117.0,12.281547546386719,-8.22367000579834,0.0605468824505806,0.1796875149011612,1.0356446504592896,-52.032470703125,-43.182373046875,72.174072265625,3.4152374267578125
223.87193298339844,-0.5929803252220154,-0.036128319799900055,0.1448703408241272,-0.7912533283233643,122.0,13.237253189086914,-11.040310859680176,0.1098632961511612,0.4033203721046448,1.0131837129592896,-23.193359375,-10.986328125,83.92333984375,3.4149367809295654
223.9251708984375,-0.5663466453552246,-0.027598632499575615,0.14393547177314758,-0.8110312819480896,125.0,11.993542671203613,-11.930455207824707,0.1562500149011612,0.3798828721046448,1.1997071504592896,8.23974609375,15.869140625,46.69189453125,3.4149367809295654
223.97853088378906,-0.5586627125740051,-0.022566692903637886,0.122965008020401,-0.8199180960655212,126.0,10.043603897094727,-10.32165241241455,-0.0913086012005806,0.5673828721046448,1.2138673067092896,72.32666015625,72.93701171875,-2.13623046875,3.4149367809295654
224.03231811523438,-0.5632866621017456,-0.005332731641829014,0.06163904815912247,-0.8239412307739258,126.0,4.486754417419434,-5.500824451446533,-0.3642578423023224,-0.0600586012005806,1.4433594942092896,153.1982421875,157.623291015625,72.479248046875,3.4149367809295654
224.08538818359375,-0.5398451685905457,0.006608873140066862,-0.03139563277363777,-0.8411526679992676,129.0,-2.5800817012786865,2.620927333831787,0.5498047471046448,-0.1435547024011612,1.2016602754592896,141.754150390625,90.33203125,-5.645751953125,3.4149367809295654
224.13931274414062,-0.5006831884384155,0.0009585898369550705,-0.10410021245479584,-0.8593471050262451,134.0,-6.078444480895996,10.309357643127441,-0.2890625298023224,0.3378906548023224,1.4746094942092896,168.45703125,25.634765625,107.72705078125,3.4145359992980957
224.19244384765625,-0.5148525238037109,-0.004691656678915024,-0.1719740778207779,-0.8398389220237732,133.0,-9.741432189941406,17.336843490600586,0.1030273586511612,-0.1801757961511612,0.8930665254592896,112.9150390625,93.68896484375,-53.863525390625,3.4148366451263428
224.2464599609375,-0.5399256944656372,0.0072677768766880035,-0.2262115180492401,-0.8107128739356995,130.0,-14.836344718933105,21.796831130981445,0.0297851599752903,0.0727539137005806,0.5620117783546448,59.051513671875,43.9453125,-106.8115234375,3.414435863494873
224.29925537109375,-0.5718376040458679,0.014375725761055946,-0.242494136095047,-0.7835756540298462,125.0,-17.449403762817383,22.40323829650879,0.0590820387005806,-0.2392578423023224,0.2836914360523224,-9.307861328125,-15.411376953125,-65.765380859375,3.414435863494873
224.35311889648438,-0.5912500023841858,0.01664597913622856,-0.20556803047657013,-0.7796716094017029,122.0,-15.607209205627441,18.203046798706055,-0.0815429762005806,-0.0751953199505806,0.2426758110523224,-117.950439453125,-97.65625,-30.82275390625,3.414034843444824
224.40628051757812,-0.6319242119789124,0.033133625984191895,-0.13326014578342438,-0.762768030166626,116.0,-12.648377418518066,9.522334098815918,-2.626953363418579,1.4741212129592896,1.890136957168579,-100.250244140625,127.410888671875,-438.385009765625,3.414034843444824
224.4607696533203,-0.6729326248168945,0.05817036330699921,-0.15583795309066772,-0.7207581400871277,109.0,-17.07303237915039,8.806644439697266,-0.1225586086511612,-0.4746094346046448,-0.1752929836511612,7.476806640625,0.91552734375,236.663818359375,3.414034843444824
224.51353454589844,-0.5991518497467041,0.030092302709817886,-0.14305691421031952,-0.7871760725975037,121.0,-12.638648986816406,11.17811107635498,0.6367188096046448,0.9023438692092896,2.171386957168579,56.7626953125,-0.762939453125,-26.85546875,3.414134979248047
224.5673370361328,-0.638549268245697,0.017286155372858047,-0.12474086135625839,-0.7592066526412964,115.0,-10.693428039550781,9.804649353027344,-1.2900391817092896,-0.6000977158546448,0.1093750149011612,-77.81982421875,30.975341796875,35.858154296875,3.414034843444824
224.62083435058594,-0.6233916282653809,0.016188954934477806,-0.08175553381443024,-0.7774552702903748,117.0,-7.302264213562012,6.189251899719238,0.4785156846046448,-0.2988281548023224,1.799316644668579,-76.751708984375,-83.160400390625,159.759521484375,3.414435863494873
224.6747283935547,-0.5836181640625,0.0062569924630224705,-0.05092102289199829,-0.8104053735733032,123.0,-3.98976469039917,4.3249406814575195,0.1835937649011612,0.02197265811264515,0.7993165254592896,-60.4248046875,-52.337646484375,59.2041015625,3.414034843444824
224.72752380371094,-0.5746289491653442,0.005546060856431723,-0.014401311054825783,-0.8182682394981384,124.0,-1.468488335609436,0.9855402112007141,0.0410156287252903,0.1425781399011612,0.8095704317092896,-65.91796875,-36.468505859375,10.833740234375,3.414435863494873
224.78123474121094,-0.5624850392341614,0.004876064136624336,0.014834605157375336,-0.8266594409942627,126.0,0.4942851960659027,-1.719871163368225,0.0942382961511612,0.1083984524011612,0.9882813692092896,-55.084228515625,-54.931640625,47.149658203125,3.414034843444824
224.83396911621094,-0.5448715686798096,-0.0007837956072762609,0.04976782575249672,-0.8370405435562134,128.0,3.184206485748291,-4.7373857498168945,-0.01562500186264515,0.0849609449505806,0.8774415254592896,-54.3212890625,-45.318603515625,30.975341796875,3.414435863494873
224.88768005371094,-0.5308916568756104,-0.004256082233041525,0.07985344529151917,-0.8436583876609802,130.0,5.276858806610107,-7.51427698135376,0.0927734449505806,0.2363281548023224,1.0546876192092896,-51.57470703125,-41.656494140625,39.520263671875,3.414034843444824
224.94049072265625,-0.5171266198158264,-0.00594183336943388,0.09763110429048538,-0.8503013849258423,132.0,6.377575874328613,-9.258098602294922,0.01269531436264515,0.3720703423023224,1.0263673067092896,-23.345947265625,-5.035400390625,30.975341796875,3.414034843444824
224.99404907226562,-0.512031078338623,0.0010987580753862858,0.10249382257461548,-0.8528288006782532,133.0,5.916900634765625,-10.188495635986328,0.1367187649011612,0.2104492485523224,1.2138673067092896,-4.119873046875,24.4140625,-8.392333984375,3.413734197616577
225.04754638671875,-0.5166992545127869,0.022400155663490295,0.08143623173236847,-0.8519902229309082,132.0,2.635770797729492,-9.32797622680664,-0.2187500298023224,0.4819336533546448,1.2260743379592896,47.91259765625,119.171142578125,0.152587890625,3.413734197616577
225.1001434326172,-0.5124025940895081,0.05626915395259857,0.019281473010778427,-0.8566828966140747,132.0,-4.396027088165283,-5.21934175491333,-0.4697266221046448,0.1069336086511612,1.3520509004592896,141.6015625,230.865478515625,7.32421875,3.413734197616577
225.15443420410156,-0.5540670156478882,0.08038195967674255,-0.0746922641992569,-0.8252081871032715,127.0,-12.440916061401367,2.0070085525512695,0.6098633408546448,0.3784180283546448,1.2631837129592896,157.928466796875,95.52001953125,-137.63427734375,3.413734197616577
225.20751953125,-0.5451162457466125,0.058886222541332245,-0.15101683139801025,-0.822541356086731,128.0,-15.16004467010498,11.004046440124512,-0.010742188431322575,0.4257813096046448,1.569336175918579,120.2392578125,-58.746337890625,82.3974609375,3.413734197616577
225.2615966796875,-0.5899126529693604,0.03277220577001572,-0.19676916301250458,-0.7824389934539795,122.0,-16.465486526489258,16.306074142456055,0.2451172173023224,-0.02050781436264515,0.8779298067092896,113.525390625,21.05712890625,-202.63671875,3.4133334159851074
225.314453125,-0.6591634750366211,0.023803072050213814,-0.23204432427883148,-0.714906632900238,112.0,-19.873477935791016,18.62804412841797,0.1123047024011612,0.003906250465661287,0.6103516221046448,73.699951171875,-21.66748046875,-181.121826171875,3.4136340618133545
225.36849975585938,-0.7137429714202881,0.010001588612794876,-0.23837798833847046,-0.6585185527801514,103.0,-20.698705673217773,18.6843204498291,0.1303711086511612,-0.3159179985523224,0.4462891221046448,28.533935546875,-67.291259765625,-115.05126953125,3.4136340618133545
225.42135620117188,-0.7546258568763733,0.003528574015945196,-0.20615282654762268,-0.6229182481765747,96.0,-18.39296531677246,15.369780540466309,-0.1894531548023224,-0.2963867485523224,0.5141602158546448,-67.44384765625,-95.977783203125,-108.94775390625,3.4136340618133545
225.47573852539062,-0.7962497472763062,0.023732421919703484,-0.14787745475769043,-0.586135745048523,88.0,-15.266890525817871,8.077797889709473,-0.9033204317092896,0.4550781846046448,1.2670899629592896,-76.2939453125,-46.38671875,-135.498046875,3.4132332801818848
225.5290069580078,-0.8122124671936035,0.023155435919761658,-0.14676834642887115,-0.564121425151825,85.0,-15.339569091796875,7.625860214233398,-0.3676758110523224,0.5957031846046448,0.9082032442092896,56.45751953125,-6.7138671875,47.91259765625,3.4132332801818848
225.5820770263672,-0.7791716456413269,-0.007124744821339846,-0.1438250094652176,-0.610044538974762,91.0,-12.441102981567383,11.015174865722656,0.8022462129592896,-0.0771484449505806,1.699218988418579,-22.735595703125,-172.271728515625,-7.01904296875,3.4136340618133545
225.63595581054688,-0.8175607323646545,-0.0027174758724868298,-0.11930003762245178,-0.563342273235321,84.0,-11.0700101852417,8.134051322937012,0.6420899033546448,-0.3457031548023224,1.568847894668579,-7.171630859375,-73.8525390625,56.304931640625,3.4133334159851074
225.68914794921875,-0.813316285610199,0.0005486565642058849,-0.10149765014648438,-0.5728992819786072,85.0,-9.539529800415039,6.720250129699707,1.0229493379592896,-0.4277344346046448,0.8115235567092896,-81.024169921875,-28.6865234375,157.928466796875,3.4136340618133545
225.74244689941406,-0.7543019652366638,0.000355047348421067,-0.07027115672826767,-0.6527559161186218,96.0,-6.112146377563477,5.262889385223389,0.5053711533546448,0.0234375037252903,1.1640626192092896,-52.337646484375,-50.6591796875,70.1904296875,3.4136340618133545
225.7957305908203,-0.7674074172973633,0.014088165946304798,-0.031024273484945297,-0.6402531862258911,94.0,-3.7645483016967773,1.0395865440368652,0.1547851711511612,0.4082031846046448,0.8925782442092896,-32.3486328125,-40.8935546875,-2.899169921875,3.414034843444824
225.84910583496094,-0.7669262290000916,0.013067708350718021,-0.006978916469961405,-0.641564130783081,94.0,-1.5742378234863281,-0.6356112360954285,-0.007324219681322575,-0.0375976599752903,0.8388673067092896,-51.116943359375,-59.814453125,7.476806640625,3.414435863494873
225.9027099609375,-0.7650264501571655,0.01530152652412653,0.027912195771932602,-0.6432111859321594,94.0,1.3192323446273804,-3.4016308784484863,0.0722656324505806,0.1962890923023224,0.9526368379592896,-50.506591796875,-45.013427734375,-3.35693359375,3.414034843444824
225.955078125,-0.7637834548950195,0.021918388083577156,0.05740814283490181,-0.6425401568412781,94.0,3.4127144813537598,-6.1681389808654785,0.1240234524011612,0.1372070461511612,0.9750977754592896,-53.7109375,-37.2314453125,15.411376953125,3.414034843444824
226.00881958007812,-0.7604727745056152,0.02899143286049366,0.08751217275857925,-0.6427922248840332,95.0,5.499111652374268,-9.051535606384277,-0.1010742336511612,0.2148437798023224,0.9438477754592896,-39.215087890625,-22.125244140625,6.40869140625,3.4139349460601807
226.0614776611328,-0.7469237446784973,0.04085293784737587,0.09388319402933121,-0.6569785475730896,97.0,4.966207504272461,-10.665887832641602,0.2128906548023224,0.3906250596046448,0.9672852754592896,-17.547607421875,7.01904296875,41.50390625,3.4139349460601807
226.1149139404297,-0.750275731086731,0.041348811239004135,0.09007444232702255,-0.6536535024642944,97.0,4.652127265930176,-10.39278793334961,0.0014648439828306437,0.2553711235523224,1.3359376192092896,9.1552734375,15.106201171875,-24.871826171875,3.413533926010132
226.16757202148438,-0.7585742473602295,0.04302877560257912,0.06432820111513138,-0.646973729133606,95.0,2.4024546146392822,-8.5486478805542,-0.2919922173023224,0.2509765923023224,1.3242188692092896,110.16845703125,123.748779296875,-6.256103515625,3.413834810256958
226.22067260742188,-0.7595027089118958,0.04020673781633377,-0.0353509783744812,-0.6482970714569092,95.0,-6.0749969482421875,-0.8780603408813477,-0.4912109971046448,-0.2944336235523224,1.2348634004592896,187.835693359375,150.7568359375,74.615478515625,3.413834810256958
226.27467346191406,-0.7520125508308411,0.009012491442263126,-0.1283055990934372,-0.6464769840240479,96.0,-11.807698249816895,8.953426361083984,0.4438477158546448,0.0629882887005806,1.4541016817092896,143.12744140625,52.947998046875,77.056884765625,3.413834810256958
226.3274383544922,-0.7238313555717468,-0.03954135626554489,-0.18278120458126068,-0.6641499996185303,101.0,-12.244434356689453,17.879432678222656,-0.0561523512005806,0.7363281846046448,1.2426759004592896,170.59326171875,36.163330078125,-139.7705078125,3.413834810256958
226.38104248046875,-0.7693697810173035,-0.04279281198978424,-0.2389170378446579,-0.5908944010734558,93.0,-18.48516082763672,21.539295196533203,0.0888671949505806,-0.3461914360523224,0.7578126192092896,78.125,60.4248046875,-124.20654296875,3.4142355918884277
226.43475341796875,-0.7929509878158569,-0.048708636313676834,-0.27141711115837097,-0.5433116555213928,88.0,-22.179716110229492,23.69800567626953,-0.02050781436264515,-0.02099609561264515,0.3935547471046448,52.032470703125,-2.13623046875,-101.01318359375,3.4139349460601807
226.4884796142578,-0.8195045590400696,-0.048786669969558716,-0.2671431601047516,-0.5046449303627014,82.0,-22.86804962158203,22.29697608947754,0.0366210974752903,-0.1621093899011612,0.2524414360523224,-24.566650390625,-56.915283203125,-64.849853515625,3.4139349460601807
226.5415496826172,-0.8350411653518677,-0.04236426576972008,-0.22867451608181,-0.4986175000667572,79.0,-19.856048583984375,18.522708892822266,-0.1752929836511612,-0.1552734524011612,0.4799805283546448,-105.133056640625,-135.80322265625,-16.632080078125,3.4139349460601807
226.59584045410156,-0.8548843264579773,-0.02832227200269699,-0.15419667959213257,-0.4945645034313202,76.0,-13.628541946411133,11.932939529418945,-1.770508050918579,1.722168207168579,2.267578363418579,11.5966796875,20.599365234375,-135.955810546875,3.4139349460601807
226.64920043945312,-0.8744034767150879,-0.03357322886586189,-0.17627385258674622,-0.45079708099365234,70.0,-16.140846252441406,13.095333099365234,-0.1318359524011612,-0.1157226711511612,0.3247070610523224,33.87451171875,19.22607421875,70.1904296875,3.4139349460601807
226.7030792236328,-0.8492605686187744,-0.04908652603626251,-0.14409419894218445,-0.5055525898933411,77.0,-11.25146484375,13.506631851196289,-0.4213867783546448,0.0615234449505806,2.344238519668579,-32.3486328125,-85.44921875,-26.702880859375,3.413533926010132
226.75625610351562,-0.8669588565826416,-0.060869377106428146,-0.12509948015213013,-0.4785672426223755,73.0,-9.128664016723633,13.189329147338867,0.6533203721046448,-0.2202148735523224,0.3247070610523224,12.969970703125,-136.260986328125,41.50390625,3.413533926010132
226.80950927734375,-0.861617922782898,-0.05482235550880432,-0.10206102579832077,-0.49415767192840576,74.0,-6.9898457527160645,11.350080490112305,0.8696290254592896,-0.6293945908546448,1.4282227754592896,-63.629150390625,-44.708251953125,270.233154296875,3.4139349460601807
226.8634033203125,-0.8258238434791565,-0.04894241690635681,-0.053445734083652496,-0.5592520833015442,82.0,-1.9215580224990845,8.088010787963867,0.1948242485523224,0.3701172173023224,0.9414063692092896,-72.32666015625,-39.825439453125,75.37841796875,3.413533926010132
226.9167022705078,-0.8141513466835022,-0.04292796179652214,-0.02559652365744114,-0.5784969925880432,85.0,0.4577125012874603,5.7114152908325195,0.1572265774011612,0.3569336235523224,0.7641602754592896,-33.721923828125,-43.02978515625,62.713623046875,3.413533926010132
226.96946716308594,-0.7960633039474487,-0.042814359068870544,0.003085253294557333,-0.6036887764930725,88.0,3.244974374771118,3.700690746307373,0.0566406324505806,0.02001953311264515,1.0249024629592896,-29.144287109375,-30.975341796875,105.5908203125,3.413533926010132
227.0224609375,-0.7643805146217346,-0.039504826068878174,0.025332342833280563,-0.6430550813674927,94.0,5.136837005615234,1.6002166271209717,0.1015625149011612,0.3359375298023224,0.9731446504592896,-25.177001953125,-27.923583984375,89.263916015625,3.4139349460601807
227.07566833496094,-0.7430691123008728,-0.04226890206336975,0.04665738344192505,-0.666246235370636,98.0,7.219005107879639,0.037356115877628326,-0.1079101711511612,0.2099609673023224,1.0302735567092896,-19.683837890625,-42.1142578125,49.4384765625,3.4139349460601807
227.12936401367188,-0.7249698638916016,-0.042587555944919586,0.05792177468538284,-0.6850181818008423,101.0,8.182671546936035,-1.0191525220870972,-0.0263671912252903,0.2773437798023224,0.9213868379592896,-6.256103515625,3.814697265625,77.667236328125,3.413834810256958
227.1819305419922,-0.7089470624923706,-0.03712685778737068,0.05167348310351372,-0.7023849487304688,104.0,7.205139636993408,-1.1520771980285645,0.0375976599752903,0.4326172471046448,1.0683594942092896,13.12255859375,20.44677734375,16.937255859375,3.4142355918884277
227.23545837402344,-0.7068472504615784,-0.03791739419102669,0.03407764062285423,-0.7055264115333557,104.0,5.83585262298584,0.31782203912734985,-0.3466797173023224,0.5356445908546448,1.2709962129592896,81.329345703125,107.72705078125,-4.425048828125,3.413834810256958
227.2882843017578,-0.6955738663673401,-0.02174799144268036,-0.05610613897442818,-0.7159298062324524,106.0,-2.688838243484497,6.356403827667236,-0.7875977754592896,-0.3188476860523224,1.665039300918579,162.353515625,226.287841796875,153.656005859375,3.4142355918884277
227.3428497314453,-0.6692187786102295,-0.013226119801402092,-0.1554831862449646,-0.7264957427978516,110.0,-10.887843132019043,14.364158630371094,0.6342774033546448,-0.2099609673023224,1.767090082168579,80.718994140625,77.667236328125,132.14111328125,3.413834810256958
227.39599609375,-0.5892753601074219,-0.036131054162979126,-0.21958744525909424,-0.7766782641410828,122.0,-11.693167686462402,23.067276000976562,-0.0268554724752903,0.7011719346046448,1.0927735567092896,125.579833984375,92.315673828125,-86.0595703125,3.414135456085205
227.44940185546875,-0.6174052953720093,-0.004337693564593792,-0.2736082077026367,-0.7375157475471497,119.0,-19.357177734375,25.68603515625,0.0454101599752903,-0.2465820610523224,0.4677734971046448,24.261474609375,101.318359375,-62.255859375,3.414135456085205
227.50338745117188,-0.6307893395423889,0.02018117718398571,-0.3019050061702728,-0.7145281434059143,117.0,-24.187055587768555,26.426471710205078,0.0463867224752903,0.2016601860523224,0.4082031846046448,19.073486328125,21.05712890625,-93.994140625,3.414135456085205
227.5562744140625,-0.6585486531257629,0.03053603693842888,-0.2970462441444397,-0.6907559037208557,112.0,-25.68509864807129,24.251312255859375,0.1166992336511612,-0.2607422173023224,0.2924804985523224,-35.858154296875,-36.62109375,-30.21240234375,3.414135456085205
227.6103973388672,-0.6695705652236938,0.027427537366747856,-0.25526461005210876,-0.6969668865203857,110.0,-22.337865829467773,20.18060302734375,-0.2841797173023224,0.0493164137005806,0.4770508408546448,-121.002197265625,-159.3017578125,-5.340576171875,3.414135456085205
227.66366577148438,-0.7000154256820679,0.0175967775285244,-0.1854707896709442,-0.689397394657135,105.0,-16.494731903076172,13.946086883544922,-1.702148675918579,2.219238519668579,2.654297113418579,89.41650390625,86.36474609375,-116.27197265625,3.414135456085205
227.71791076660156,-0.6902523040771484,-0.00042037060484290123,-0.19878974556922913,-0.6957252025604248,107.0,-15.893209457397461,16.75043487548828,0.6303711533546448,-0.4077149033546448,0.3613281548023224,-54.01611328125,-55.694580078125,126.3427734375,3.4137346744537354
227.77113342285156,-0.7040442228317261,-0.002910475479438901,-0.15321938693523407,-0.6934242248535156,105.0,-12.222585678100586,12.803829193115234,-0.6386719346046448,0.8613282442092896,2.146484613418579,-25.634765625,-10.68115234375,-77.81982421875,3.4140353202819824
227.8253631591797,-0.6997299194335938,-0.020117687061429024,-0.14164991676807404,-0.6999340057373047,105.0,-9.791962623596191,13.284884452819824,-1.0615235567092896,-1.2182618379592896,0.0776367262005806,-3.662109375,-10.986328125,-144.805908203125,3.4137346744537354
227.87855529785156,-0.6862509846687317,-0.018815573304891586,-0.11149761825799942,-0.7185217142105103,107.0,-7.238039970397949,10.809600830078125,0.7026367783546448,-0.0615234449505806,1.2929688692092896,-64.39208984375,-61.492919921875,-10.68115234375,3.4137346744537354
227.93246459960938,-0.6524660587310791,-0.03291463851928711,-0.06983107328414917,-0.7538750171661377,112.0,-2.3783297538757324,8.532308578491211,0.1992187798023224,0.2016601860523224,0.8325196504592896,-41.80908203125,-43.182373046875,112.762451171875,3.4137346744537354
227.98594665527344,-0.6195619106292725,-0.041025105863809586,-0.037541430443525314,-0.7829751372337341,117.0,1.0156092643737793,6.294591426849365,0.0273437537252903,0.2988281548023224,0.9570313692092896,-34.637451171875,-59.967041015625,129.852294921875,3.4137346744537354
228.03970336914062,-0.5869766473770142,-0.050637923181056976,-0.01873895339667797,-0.8078010082244873,122.0,3.429025888442993,5.156831741333008,0.1650390774011612,0.2563476860523224,0.9643555879592896,-9.46044921875,-38.4521484375,80.87158203125,3.4137346744537354
228.09246826171875,-0.5577181577682495,-0.05954287573695183,-0.004468090832233429,-0.8278797268867493,126.0,5.371023654937744,4.251804828643799,0.02294922061264515,0.0532226637005806,0.9541016817092896,-21.820068359375,-26.2451171875,70.343017578125,3.4137346744537354
228.14556884765625,-0.5323393940925598,-0.06237567961215973,0.020273152738809586,-0.8439846038818359,129.0,7.288910865783691,1.8596863746643066,0.0810546949505806,0.0434570349752903,1.0893555879592896,-51.727294921875,-43.182373046875,45.928955078125,3.414135456085205
228.19883728027344,-0.5105956792831421,-0.05748891085386276,0.049001146107912064,-0.8564959764480591,133.0,8.54102897644043,-1.462024211883545,0.1494140774011612,0.4409180283546448,0.8725587129592896,-38.604736328125,-0.762939453125,78.277587890625,3.414135456085205
228.2518768310547,-0.4864523410797119,-0.05232444778084755,0.05763820558786392,-0.8702320456504822,136.0,8.461528778076172,-2.8633623123168945,0.2558594048023224,0.4350586533546448,1.0551759004592896,-3.509521484375,-1.068115234375,26.2451171875,3.414436101913452
228.30519104003906,-0.49252432584762573,-0.05069895461201668,0.04704032838344574,-0.8675455451011658,135.0,7.718393802642822,-1.8319429159164429,0.0415039099752903,0.6250000596046448,1.2041016817092896,42.572021484375,51.8798828125,-40.58837890625,3.414536237716675
228.35891723632812,-0.49985262751579285,-0.03405394032597542,0.0005574505776166916,-0.8654404282569885,134.0,3.4111478328704834,1.8990004062652588,-0.3652344048023224,-0.0507812574505806,1.4589844942092896,139.617919921875,180.0537109375,23.8037109375,3.414135456085205
228.4119873046875,-0.4709266126155853,0.004165396094322205,-0.09896489232778549,-0.876593291759491,138.0,-5.76871919631958,9.813638687133789,0.3559570610523224,-0.0908203199505806,1.2050782442092896,134.735107421875,128.47900390625,-59.814453125,3.414536237716675
228.46583557128906,-0.4771064221858978,0.015294069424271584,-0.17148001492023468,-0.8618178963661194,138.0,-10.952191352844238,16.62986946105957,0.0239257849752903,0.5815430283546448,1.4555665254592896,151.9775390625,54.01611328125,138.702392578125,3.414135456085205
228.5189666748047,-0.48350101709365845,0.0277915820479393,-0.23688146471977234,-0.8422236442565918,138.0,-16.014362335205078,22.778217315673828,0.2006836235523224,0.0336914099752903,0.9130860567092896,89.7216796875,90.02685546875,-103.302001953125,3.414135456085205
228.572265625,-0.520515501499176,0.05145300179719925,-0.27837708592414856,-0.8055567145347595,133.0,-21.88197135925293,25.18838882446289,0.01953125186264515,-0.0278320349752903,0.5659180283546448,59.051513671875,33.87451171875,-93.07861328125,3.414436101913452
228.62582397460938,-0.5455501079559326,0.05110238865017891,-0.29445743560791016,-0.7829804420471191,130.0,-23.65990447998047,26.266708374023438,0.0883789137005806,-0.1538086086511612,0.4082031846046448,17.08984375,-24.10888671875,-40.435791015625,3.414536237716675
228.67916870117188,-0.5666069984436035,0.04423774406313896,-0.27215367555618286,-0.7764861583709717,127.0,-22.154680252075195,23.716564178466797,0.0571289137005806,-0.2080078423023224,0.3979492783546448,-63.4765625,-81.48193359375,-46.38671875,3.414536237716675
228.73321533203125,-0.5912232995033264,0.03791219741106033,-0.21949109435081482,-0.7751394510269165,122.0,-18.560810089111328,18.158910751342773,-0.7143555283546448,0.6386719346046448,1.0517579317092896,-122.0703125,-148.3154296875,-66.986083984375,3.414536237716675
228.78671264648438,-0.6410520076751709,0.0512646809220314,-0.1999686062335968,-0.7392131686210632,115.0,-19.400636672973633,14.108146667480469,-0.4384766221046448,0.8564454317092896,1.3701173067092896,40.58837890625,10.3759765625,-109.86328125,3.414536237716675
228.84097290039062,-0.6225242018699646,0.03728996217250824,-0.20050692558288574,-0.7555590867996216,118.0,-17.81775665283203,15.633809089660645,0.0791015699505806,-0.5000000596046448,1.0205079317092896,-42.41943359375,-113.372802734375,150.299072265625,3.414536237716675
228.89437866210938,-0.5948840379714966,0.017586257308721542,-0.1737004965543747,-0.7846218347549438,122.0,-13.548032760620117,15.002310752868652,1.831543207168579,0.2749023735523224,1.507812738418579,25.32958984375,-67.7490234375,-149.383544921875,3.414536237716675
228.9486846923828,-0.637592077255249,0.017131781205534935,-0.16100159287452698,-0.7531671524047852,115.0,-13.362600326538086,13.109736442565918,-0.0693359449505806,-0.4897461533546448,0.3364258110523224,-43.182373046875,-154.11376953125,101.62353515625,3.414135456085205
229.00180053710938,-0.574510395526886,0.0007248558104038239,-0.11094556748867035,-0.8109428286552429,124.0,-7.391841888427734,10.405241966247559,-0.2529297173023224,0.0927734449505806,1.4643555879592896,-30.82275390625,-98.57177734375,96.435546875,3.414536237716675
229.0560760498047,-0.5410387516021729,-0.0014164812164381146,-0.07656458020210266,-0.8375035524368286,129.0,-4.615938186645508,7.481228828430176,0.2509765923023224,0.5903320908546448,0.7836915254592896,-57.830810546875,-36.0107421875,25.32958984375,3.414536237716675
229.1090087890625,-0.5306604504585266,-0.006042133085429668,-0.0458030067384243,-0.8463243842124939,130.0,-2.1998093128204346,4.8186936378479,0.1020507961511612,0.0507812574505806,0.9194337129592896,-44.097900390625,-46.539306640625,24.71923828125,3.414536237716675
229.1627960205078,-0.508873701095581,-0.011681829579174519,-0.015590483322739601,-0.8606207370758057,133.0,0.24293914437294006,2.2193045616149902,0.0532226637005806,0.1425781399011612,0.9375001192092896,-44.097900390625,-38.604736328125,65.155029296875,3.414135456085205
229.21563720703125,-0.49110016226768494,-0.014961772598326206,0.00863621849566698,-0.8709315061569214,135.0,1.979610800743103,-0.019930873066186905,0.0527343824505806,0.1093750149011612,1.0131837129592896,-55.5419921875,-33.87451171875,49.13330078125,3.414135456085205
229.26943969726562,-0.47148406505584717,-0.01408905815333128,0.037385307252407074,-0.8809690475463867,138.0,3.444243907928467,-3.0197525024414062,-0.1069336086511612,0.3945313096046448,0.9331055879592896,-40.130615234375,-19.22607421875,55.23681640625,3.414135456085205
229.32241821289062,-0.450564980506897,-0.005986095406115055,0.04613238945603371,-0.8915303945541382,141.0,2.9947729110717773,-4.414294242858887,0.1059570461511612,0.5498047471046448,1.0126954317092896,-14.801025390625,20.751953125,21.209716796875,3.414135456085205
229.3756866455078,-0.4496839642524719,0.006767609156668186,0.039500296115875244,-0.8922881484031677,141.0,1.343593716621399,-4.393098831176758,-0.1943359673023224,0.5708008408546448,1.2543946504592896,33.87451171875,46.69189453125,15.56396484375,3.414536237716675
229.42930603027344,-0.45504501461982727,0.04205115884542465,-0.021853484213352203,-0.8892059326171875,140.0,-5.432494640350342,0.034196361899375916,-0.5708008408546448,0.1015625149011612,1.3740235567092896,142.974853515625,199.432373046875,13.580322265625,3.414135456085205
229.48321533203125,-0.47497841715812683,0.08076778054237366,-0.12401100993156433,-0.8674632906913757,138.0,-14.947347640991211,8.237232208251953,0.7792969942092896,0.0878906324505806,1.2690430879592896,166.778564453125,84.53369140625,-177.154541015625,3.414135456085205
229.5363311767578,-0.43968504667282104,0.07031157612800598,-0.18498563766479492,-0.8760781288146973,143.0,-16.610721588134766,15.885540008544922,-0.3608398735523224,0.2426758110523224,1.704590082168579,135.955810546875,0.91552734375,225.830078125,3.4142355918884277
229.5903778076172,-0.4483197033405304,0.05993309244513512,-0.24365083873271942,-0.857934296131134,143.0,-18.741819381713867,22.627277374267578,0.1904297173023224,-0.0502929762005806,0.8554688692092896,101.776123046875,62.8662109375,-187.98828125,3.413834810256958
229.6434783935547,-0.5120382308959961,0.08327115327119827,-0.28077077865600586,-0.8074960708618164,135.0,-24.961742401123047,23.960128784179688,0.0756836012005806,-0.1152343899011612,0.4526367783546448,45.013427734375,-5.035400390625,-103.759765625,3.4142355918884277
229.69752502441406,-0.5560820698738098,0.08229710906744003,-0.280918687582016,-0.7778717279434204,128.0,-26.133291244506836,22.63457679748535,0.1186523586511612,-0.1992187798023224,0.3232422173023224,-4.57763671875,-59.967041015625,-72.6318359375,3.413834810256958
229.7503662109375,-0.5810280442237854,0.07532413303852081,-0.2388063371181488,-0.7744054198265076,124.0,-23.214168548583984,17.891010284423828,-0.1059570461511612,-0.1083984524011612,0.3750000596046448,-125.579833984375,-117.7978515625,-42.724609375,3.4142355918884277
